Time	COM	Chip Time()	Acceleration X(g)	Acceleration Y(g)	Acceleration Z(g)	Angular velocity X(/s)	Angular velocity Y(/s)	Angular velocity Z(/s)	Angle X()	Angle Y()	Angle Z()	Magnetic field X(?t)	Magnetic field Y(?t)	Magnetic field Z(?t)	Temperature(?)	Pressure(Pa)	Height(m)	Longitude()	Latitude()	GPS ground speed(km)	GPS course()	GPS height(m)	Number of satellites()	Position location()	Horizontal position()	Vertical position()	Quaternions 0()	Quaternions 1()	Quaternions 2()	Quaternions 3()
03:31:39.986	COM3_115200	2000-0-0 5:23:2.925	0,327	-0,845	1,606	-2,136	0,366	2,075	-27,438	-11,420	157,484	11,400	67,658	-52,142	40,14															
03:31:39.994	COM8_115200	2000-0-0 5:27:30.530	0,333	0,935	1,881	1,160	-3,113	1,282	26,340	-9,124	-48,950	-48,158	62,258	41,300	37,05															
03:31:40.010	COM3_115200	2000-0-0 5:23:2.945	0,331	-0,849	1,606	-2,747	0,854	1,038	-27,493	-11,387	157,505	11,400	67,658	-52,142	40,23															
03:31:40.010	COM8_115200	2000-0-0 5:27:30.550	0,324	0,940	1,875	2,380	-1,953	0,793	26,384	-9,168	-48,955	-48,158	62,258	41,300	36,98															
03:31:40.026	COM3_115200	2000-0-0 5:23:2.965	0,339	-0,848	1,606	-3,723	1,831	0,793	-27,565	-11,343	157,500	11,400	67,658	-52,142	40,36															
03:31:40.026	COM8_115200	2000-0-0 5:27:30.570	0,337	0,941	1,869	2,258	-2,197	1,160	26,428	-9,218	-48,955	-48,158	62,258	41,300	36,95															
03:31:40.041	COM3_115200	2000-0-0 5:23:2.985	0,343	-0,843	1,601	-4,089	1,465	1,465	-27,647	-11,288	157,505	11,400	67,658	-52,142	40,36															
03:31:40.088	COM8_115200	2000-0-0 5:27:30.590	0,328	0,948	1,873	2,625	-1,465	2,136	26,483	-9,261	-48,939	-48,158	62,258	41,300	37,08															
03:31:40.088	COM8_115200	2000-0-0 5:27:30.610	0,332	0,948	1,869	2,136	-2,136	1,831	26,526	-9,311	-48,917	-48,158	62,258	41,300	37,01															
03:31:40.088	COM8_115200	2000-0-0 5:27:30.630	0,334	0,943	1,866	1,953	-2,563	1,038	26,565	-9,360	-48,911	-48,158	62,258	41,300	37,05															
03:31:40.088	COM3_115200	2000-0-0 5:23:3.005	0,331	-0,841	1,599	-3,662	0,000	2,380	-27,729	-11,250	157,538	11,400	67,658	-52,142	40,29															
03:31:40.088	COM3_115200	2000-0-0 5:23:3.025	0,331	-0,837	1,596	-3,418	-0,122	1,953	-27,806	-11,223	157,577	11,400	67,658	-52,142	40,29															
03:31:40.120	COM8_115200	2000-0-0 5:27:30.650	0,330	0,930	1,859	2,197	-2,075	1,160	26,609	-9,404	-48,917	-48,158	62,258	41,300	36,98															
03:31:40.120	COM3_115200	2000-0-0 5:23:3.045	0,330	-0,839	1,593	-3,601	0,549	1,709	-27,878	-11,195	157,610	11,400	67,658	-52,142	40,33															
03:31:40.120	COM3_115200	2000-0-0 5:23:3.065	0,332	-0,836	1,593	-3,662	0,793	2,258	-27,955	-11,151	157,637	11,400	67,658	-52,142	40,26															
03:31:40.135	COM8_115200	2000-0-0 5:27:30.670	0,332	0,937	1,852	2,686	-0,854	1,648	26,664	-9,432	-48,906	-48,158	62,258	41,300	37,01															
03:31:40.135	COM3_115200	2000-0-0 5:23:3.085	0,327	-0,837	1,595	-3,113	0,732	2,747	-28,032	-11,107	157,676	11,400	67,658	-52,142	40,42															
03:31:40.166	COM3_115200	2000-0-0 5:23:3.105	0,327	-0,840	1,590	-2,319	-0,671	1,953	-28,087	-11,080	157,720	11,400	67,658	-52,142	40,29															
03:31:40.182	COM3_115200	2000-0-0 5:23:3.125	0,335	-0,839	1,580	-1,770	-0,610	1,038	-28,130	-11,069	157,747	11,400	67,658	-52,142	40,33															
03:31:40.182	COM8_115200	2000-0-0 5:27:30.690	0,333	0,943	1,851	2,747	-0,366	1,526	26,713	-9,454	-48,878	-48,158	62,258	41,300	36,92															
03:31:40.182	COM8_115200	2000-0-0 5:27:30.710	0,341	0,936	1,856	2,380	0,244	0,977	26,757	-9,459	-48,856	-48,158	62,258	41,300	36,98															
03:31:40.182	COM8_115200	2000-0-0 5:27:30.730	0,338	0,937	1,853	1,648	-0,061	0,671	26,796	-9,465	-48,845	-48,158	62,258	41,300	37,01															
03:31:40.198	COM3_115200	2000-0-0 5:23:3.145	0,335	-0,843	1,580	-2,136	-0,610	1,160	-28,169	-11,063	157,775	11,400	67,658	-52,142	40,26															
03:31:40.213	COM8_115200	2000-0-0 5:27:30.750	0,334	0,941	1,850	1,831	0,549	0,977	26,834	-9,459	-48,829	-48,158	62,258	41,300	37,08															
03:31:40.229	COM3_115200	2000-0-0 5:23:3.165	0,323	-0,836	1,589	-1,831	-1,038	1,648	-28,213	-11,058	157,808	11,400	67,658	-52,142	40,33															
03:31:40.244	COM3_115200	2000-0-0 5:23:3.185	0,317	-0,836	1,583	-1,770	-1,099	1,465	-28,246	-11,058	157,846	11,400	67,658	-52,142	40,14															
03:31:40.251	COM8_115200	2000-0-0 5:27:30.770	0,343	0,940	1,852	1,404	0,000	0,427	26,862	-9,465	-48,812	-48,158	62,258	41,300	36,98															
03:31:40.271	COM8_115200	2000-0-0 5:27:30.790	0,341	0,941	1,853	1,587	-0,366	-0,244	26,889	-9,465	-48,812	-48,158	62,258	41,300	37,08															
03:31:40.276	COM3_115200	2000-0-0 5:23:3.205	0,321	-0,832	1,577	-2,319	0,000	1,526	-28,290	-11,047	157,879	11,400	67,658	-52,142	40,33															
03:31:40.279	COM8_115200	2000-0-0 5:27:30.810	0,342	0,946	1,860	1,770	-1,221	0,000	26,927	-9,470	-48,818	-48,158	62,258	41,300	36,98															
03:31:40.297	COM3_115200	2000-0-0 5:23:3.225	0,329	-0,837	1,566	-3,052	1,709	2,075	-28,339	-10,997	157,901	11,400	67,658	-52,142	40,45															
03:31:40.308	COM8_115200	2000-0-0 5:27:30.830	0,336	0,944	1,860	1,465	-2,747	0,977	26,960	-9,509	-48,829	-48,158	62,258	41,300	36,98															
03:31:40.308	COM3_115200	2000-0-0 5:23:3.245	0,330	-0,839	1,571	-3,479	2,380	3,235	-28,411	-10,926	157,928	11,400	67,658	-52,142	40,23															
03:31:40.324	COM8_115200	2000-0-0 5:27:30.850	0,345	0,944	1,857	1,160	-3,479	1,404	26,982	-9,580	-48,840	-48,158	62,258	41,300	36,95															
03:31:40.324	COM3_115200	2000-0-0 5:23:3.265	0,321	-0,836	1,582	-3,113	2,808	2,625	-28,471	-10,844	157,956	11,400	67,658	-52,142	40,26															
03:31:40.324	COM8_115200	2000-0-0 5:27:30.870	0,337	0,935	1,858	-0,061	-5,188	1,465	26,993	-9,668	-48,851	-48,158	62,258	41,300	37,05															
03:31:40.340	COM3_115200	2000-0-0 5:23:3.285	0,325	-0,835	1,580	-2,625	3,357	1,221	-28,521	-10,767	157,956	11,400	67,658	-52,142	40,29															
03:31:40.355	COM8_115200	2000-0-0 5:27:30.890	0,339	0,927	1,861	-0,549	-5,737	1,709	26,988	-9,778	-48,878	-48,158	62,258	41,300	37,11															
03:31:40.371	COM3_115200	2000-0-0 5:23:3.305	0,329	-0,840	1,581	-2,319	4,211	0,366	-28,553	-10,684	157,928	11,400	67,658	-52,142	40,26															
03:31:40.371	COM8_115200	2000-0-0 5:27:30.910	0,327	0,925	1,858	-0,854	-5,432	2,808	26,971	-9,893	-48,889	-48,158	62,258	41,300	36,98															
03:31:40.371	COM3_115200	2000-0-0 5:23:3.325	0,330	-0,833	1,595	-2,319	3,784	0,732	-28,586	-10,607	157,901	11,400	67,658	-52,142	40,29															
03:31:40.386	COM8_115200	2000-0-0 5:27:30.930	0,327	0,926	1,854	-0,793	-3,357	3,906	26,944	-9,992	-48,867	-48,158	62,258	41,300	37,08															
03:31:40.402	COM3_115200	2000-0-0 5:23:3.345	0,325	-0,831	1,599	-1,709	2,930	0,793	-28,614	-10,536	157,885	11,400	67,658	-52,142	40,20															
03:31:40.417	COM8_115200	2000-0-0 5:27:30.950	0,332	0,929	1,861	-1,587	-3,601	3,723	26,917	-10,074	-48,829	-48,158	62,258	41,300	36,95															
03:31:40.441	COM8_115200	2000-0-0 5:27:30.970	0,345	0,931	1,870	-1,343	-2,930	4,211	26,878	-10,157	-48,790	-48,158	62,258	41,300	37,11															
03:31:40.441	COM3_115200	2000-0-0 5:23:3.365	0,326	-0,831	1,604	-0,793	2,563	-0,732	-28,625	-10,486	157,857	11,400	67,658	-52,142	40,42															
03:31:40.441	COM3_115200	2000-0-0 5:23:3.385	0,332	-0,831	1,591	-1,404	3,113	-1,282	-28,630	-10,443	157,808	11,400	67,658	-52,142	40,42															
03:31:40.473	COM8_115200	2000-0-0 5:27:30.990	0,335	0,932	1,867	-1,953	-2,380	6,042	26,823	-10,239	-48,713	-48,158	62,258	41,300	37,08															
03:31:40.473	COM3_115200	2000-0-0 5:23:3.405	0,336	-0,840	1,606	-1,648	1,953	-0,916	-28,641	-10,410	157,764	11,400	67,658	-52,142	40,23															
03:31:40.473	COM8_115200	2000-0-0 5:27:31.010	0,349	0,939	1,855	-1,160	0,488	7,629	26,774	-10,305	-48,593	-48,158	62,258	41,300	37,11															
03:31:40.488	COM8_115200	2000-0-0 5:27:31.030	0,338	0,949	1,869	-0,549	0,366	6,531	26,735	-10,333	-48,455	-48,158	62,258	41,300	37,11															
03:31:40.488	COM3_115200	2000-0-0 5:23:3.425	0,335	-0,839	1,620	-1,160	0,610	-0,549	-28,652	-10,399	157,742	11,400	67,658	-52,142	40,33															
03:31:40.504	COM3_115200	2000-0-0 5:23:3.445	0,331	-0,841	1,606	-1,343	-0,549	-1,526	-28,663	-10,410	157,725	11,400	67,658	-52,142	40,11															
03:31:40.504	COM8_115200	2000-0-0 5:27:31.050	0,350	0,927	1,877	0,000	0,488	6,226	26,702	-10,371	-48,340	-48,158	62,258	41,300	36,98															
03:31:40.520	COM3_115200	2000-0-0 5:23:3.465	0,339	-0,846	1,595	-1,953	-0,671	-1,404	-28,680	-10,432	157,703	11,400	67,658	-52,142	40,33															
03:31:40.535	COM8_115200	2000-0-0 5:27:31.070	0,346	0,930	1,868	0,916	1,648	9,399	26,697	-10,399	-48,186	-48,158	62,258	41,300	37,05															
03:31:40.551	COM3_115200	2000-0-0 5:23:3.485	0,339	-0,843	1,604	-2,747	-1,282	-0,122	-28,718	-10,448	157,703	11,400	67,658	-52,142	40,26															
03:31:40.551	COM8_115200	2000-0-0 5:27:31.090	0,348	0,917	1,873	1,038	4,517	13,550	26,675	-10,432	-47,939	-48,158	62,258	41,300	36,98															
03:31:40.566	COM3_115200	2000-0-0 5:23:3.505	0,356	-0,832	1,603	-2,991	-0,916	0,488	-28,768	-10,475	157,720	11,400	67,658	-52,142	40,20															
03:31:40.582	COM8_115200	2000-0-0 5:27:31.110	0,408	0,905	1,860	4,089	11,658	16,846	26,647	-10,426	-47,576	-48,158	62,258	41,300	37,01															
03:31:40.582	COM3_115200	2000-0-0 5:23:3.525	0,362	-0,834	1,594	-0,916	8,789	0,366	-28,790	-10,404	157,687	11,400	67,658	-52,142	40,36															
03:31:40.598	COM8_115200	2000-0-0 5:27:31.130	0,318	0,934	1,882	3,357	8,301	14,709	26,680	-10,333	-47,192	-48,158	62,258	41,300	37,05															
03:31:40.598	COM3_115200	2000-0-0 5:23:3.545	0,327	-0,818	1,571	0,916	21,973	-0,916	-28,729	-10,063	157,500	11,400	67,658	-52,142	40,26															
03:31:40.613	COM8_115200	2000-0-0 5:27:31.150	0,401	0,917	1,877	3,296	2,258	13,428	26,680	-10,377	-46,901	-48,158	62,258	41,300	36,92															
03:31:40.613	COM3_115200	2000-0-0 5:23:3.565	0,291	-0,826	1,558	0,305	23,865	-1,404	-28,658	-9,646	157,242	11,400	67,658	-52,142	40,45															
03:31:40.629	COM8_115200	2000-0-0 5:27:31.170	0,398	0,961	1,839	4,761	3,174	13,306	26,708	-10,437	-46,615	-48,158	62,258	41,300	37,11															
03:31:40.645	COM3_115200	2000-0-0 5:23:3.585	0,302	-0,832	1,578	0,549	16,541	-0,671	-28,608	-9,338	157,044	11,400	67,658	-52,142	40,39															
03:31:40.645	COM8_115200	2000-0-0 5:27:31.190	0,333	0,974	1,840	1,160	-2,563	8,728	26,730	-10,514	-46,412	-48,158	62,258	41,300	36,92															
03:31:40.660	COM3_115200	2000-0-0 5:23:3.605	0,307	-0,848	1,596	1,221	13,550	-0,732	-28,553	-9,108	156,890	11,400	67,658	-52,142	40,23															
03:31:40.676	COM3_115200	2000-0-0 5:23:3.625	0,351	-0,847	1,584	0,671	11,902	-0,366	-28,499	-8,915	156,758	11,400	67,658	-52,142	40,33															
03:31:40.691	COM8_115200	2000-0-0 5:27:31.210	0,392	0,925	1,853	0,549	-6,409	3,296	26,724	-10,668	-46,379	-48,158	62,258	41,300	37,01															
03:31:40.691	COM8_115200	2000-0-0 5:27:31.230	0,394	0,928	1,829	3,235	-2,380	1,587	26,774	-10,745	-46,379	-48,158	62,258	41,300	37,01															
03:31:40.707	COM3_115200	2000-0-0 5:23:3.645	0,363	-0,858	1,573	-0,854	9,338	2,808	-28,488	-8,740	156,687	11,400	67,658	-52,142	40,29															
03:31:40.707	COM8_115200	2000-0-0 5:27:31.250	0,370	0,944	1,810	2,563	-0,916	1,465	26,829	-10,772	-46,362	-48,158	62,258	41,300	37,01															
03:31:40.723	COM3_115200	2000-0-0 5:23:3.665	0,335	-0,846	1,601	-2,869	3,601	4,639	-28,526	-8,624	156,714	11,400	67,658	-52,142	40,36															
03:31:40.738	COM8_115200	2000-0-0 5:27:31.270	0,363	0,927	1,832	1,282	-0,977	-0,977	26,867	-10,772	-46,373	-48,158	62,258	41,300	36,92															
03:31:40.770	COM8_115200	2000-0-0 5:27:31.290	0,397	0,919	1,844	2,380	-0,061	-2,319	26,906	-10,767	-46,412	-48,158	62,258	41,300	37,08															
03:31:40.770	COM3_115200	2000-0-0 5:23:3.685	0,350	-0,847	1,608	-3,113	1,648	3,540	-28,586	-8,564	156,769	11,400	67,658	-52,142	40,39															
03:31:40.770	COM3_115200	2000-0-0 5:23:3.705	0,356	-0,845	1,599	-3,540	-0,244	0,977	-28,652	-8,558	156,797	11,400	67,658	-52,142	40,33															
03:31:40.770	COM8_115200	2000-0-0 5:27:31.310	0,397	0,923	1,843	2,625	-0,610	-0,916	26,966	-10,750	-46,450	-48,158	62,258	41,300	37,01															
03:31:40.770	COM3_115200	2000-0-0 5:23:3.725	0,354	-0,845	1,596	-3,601	-2,197	0,610	-28,718	-8,597	156,819	11,400	67,658	-52,142	40,23															
03:31:40.816	COM3_115200	2000-0-0 5:23:3.745	0,348	-0,839	1,596	-3,540	-4,089	0,427	-28,790	-8,685	156,863	11,400	67,658	-52,142	40,26															
03:31:40.832	COM3_115200	2000-0-0 5:23:3.765	0,333	-0,833	1,592	-3,418	-5,005	0,122	-28,856	-8,784	156,912	11,400	67,658	-52,142	40,20															
03:31:40.832	COM8_115200	2000-0-0 5:27:31.330	0,379	0,932	1,838	2,136	-0,122	0,000	27,010	-10,750	-46,461	-48,158	62,258	41,300	37,01															
03:31:40.832	COM8_115200	2000-0-0 5:27:31.350	0,378	0,926	1,845	1,526	-0,916	-0,854	27,043	-10,756	-46,472	-48,158	62,258	41,300	37,08															
03:31:40.832	COM8_115200	2000-0-0 5:27:31.370	0,375	0,917	1,843	1,892	-2,380	-1,648	27,087	-10,767	-46,516	-48,158	62,258	41,300	36,95															
03:31:40.832	COM3_115200	2000-0-0 5:23:3.785	0,336	-0,824	1,592	-3,784	-6,287	-0,732	-28,922	-8,910	156,962	11,400	67,658	-52,142	40,20															
03:31:40.848	COM8_115200	2000-0-0 5:27:31.390	0,396	0,915	1,834	2,686	-1,465	-1,465	27,136	-10,783	-46,560	-48,158	62,258	41,300	37,01															
03:31:40.863	COM3_115200	2000-0-0 5:23:3.805	0,341	-0,827	1,584	-4,028	-7,874	-0,671	-28,993	-9,069	157,022	11,400	67,658	-52,142	40,23															
03:31:40.863	COM8_115200	2000-0-0 5:27:31.410	0,367	0,917	1,831	2,869	-0,916	-0,793	27,191	-10,783	-46,588	-48,158	62,258	41,300	36,98															
03:31:40.879	COM3_115200	2000-0-0 5:23:3.825	0,335	-0,824	1,590	-4,395	-8,362	-0,061	-29,075	-9,234	157,099	11,400	67,658	-52,142	40,29															
03:31:40.895	COM8_115200	2000-0-0 5:27:31.430	0,376	0,908	1,835	3,662	0,305	0,000	27,246	-10,789	-46,593	-48,158	62,258	41,300	36,98															
03:31:40.895	COM3_115200	2000-0-0 5:23:3.845	0,332	-0,821	1,591	-3,906	-9,216	-0,977	-29,152	-9,404	157,176	11,400	67,658	-52,142	40,23															
03:31:40.910	COM8_115200	2000-0-0 5:27:31.450	0,386	0,909	1,837	2,808	-0,671	1,038	27,301	-10,794	-46,588	-48,158	62,258	41,300	37,08															
03:31:40.926	COM3_115200	2000-0-0 5:23:3.865	0,333	-0,826	1,589	-3,357	-11,414	-3,113	-29,213	-9,624	157,242	11,400	67,658	-52,142	40,20															
03:31:40.926	COM8_115200	2000-0-0 5:27:31.470	0,369	0,908	1,849	2,808	0,183	1,221	27,350	-10,794	-46,560	-48,158	62,258	41,300	37,01															
03:31:40.941	COM3_115200	2000-0-0 5:23:3.885	0,344	-0,829	1,588	-3,174	-13,123	-4,883	-29,268	-9,893	157,291	11,400	67,658	-52,142	40,39															
03:31:40.957	COM3_115200	2000-0-0 5:23:3.905	0,333	-0,829	1,590	-3,662	-13,672	-5,005	-29,323	-10,179	157,335	11,400	67,658	-52,142	40,36															
03:31:40.957	COM8_115200	2000-0-0 5:27:31.490	0,383	0,908	1,841	2,747	0,000	2,197	27,378	-10,816	-46,533	-48,158	62,258	41,300	37,01															
03:31:40.973	COM3_115200	2000-0-0 5:23:3.925	0,334	-0,824	1,590	-4,028	-14,465	-5,188	-29,388	-10,486	157,385	11,400	67,658	-52,142	40,39															
03:31:40.973	COM8_115200	2000-0-0 5:27:31.510	0,386	0,915	1,835	3,418	2,075	3,845	27,411	-10,816	-46,461	-48,158	62,258	41,300	37,01															
03:31:40.988	COM8_115200	2000-0-0 5:27:31.530	0,366	0,919	1,846	3,540	4,822	3,235	27,449	-10,767	-46,351	-48,158	62,258	41,300	36,95															
03:31:41.004	COM3_115200	2000-0-0 5:23:3.945	0,330	-0,817	1,579	-3,845	-9,521	-5,554	-29,449	-10,739	157,401	11,400	67,658	-52,142	40,20															
03:31:41.019	COM3_115200	2000-0-0 5:23:3.965	0,324	-0,805	1,563	-2,991	0,000	-5,493	-29,482	-10,860	157,341	11,400	67,658	-52,142	40,45															
03:31:41.035	COM3_115200	2000-0-0 5:23:3.985	0,320	-0,803	1,546	-2,441	10,803	-4,883	-29,476	-10,778	157,181	11,400	67,658	-52,142	40,23															
03:31:41.051	COM8_115200	2000-0-0 5:27:31.550	0,388	0,907	1,863	3,357	2,502	2,563	27,488	-10,728	-46,274	-48,158	62,258	41,300	37,01															
03:31:41.051	COM8_115200	2000-0-0 5:27:31.570	0,389	0,921	1,871	4,028	0,061	2,808	27,543	-10,728	-46,214	-48,158	62,258	41,300	36,98															
03:31:41.051	COM3_115200	2000-0-0 5:23:4.005	0,323	-0,804	1,563	-2,319	19,226	-4,333	-29,449	-10,514	156,929	11,400	67,658	-52,142	40,29															
03:31:41.051	COM8_115200	2000-0-0 5:27:31.590	0,401	0,902	1,868	4,089	-1,770	5,127	27,592	-10,789	-46,154	-48,158	62,258	41,300	36,98															
03:31:41.066	COM8_115200	2000-0-0 5:27:31.610	0,406	0,890	1,853	3,540	0,793	7,874	27,631	-10,849	-46,038	-48,158	62,258	41,300	36,98															
03:31:41.082	COM3_115200	2000-0-0 5:23:4.025	0,328	-0,796	1,598	-1,953	16,663	-6,897	-29,416	-10,261	156,643	11,400	67,658	-52,142	40,29															
03:31:41.098	COM3_115200	2000-0-0 5:23:4.045	0,326	-0,791	1,607	-2,319	9,583	-10,864	-29,377	-10,135	156,352	11,400	67,658	-52,142	40,23															
03:31:41.113	COM3_115200	2000-0-0 5:23:4.065	0,411	-0,816	1,559	-2,747	8,484	-11,414	-29,350	-10,107	156,061	11,400	67,658	-52,142	40,29															
03:31:41.129	COM8_115200	2000-0-0 5:27:31.630	0,389	0,884	1,847	1,953	2,014	10,986	27,636	-10,909	-45,840	-48,158	62,258	41,300	36,89															
03:31:41.129	COM8_115200	2000-0-0 5:27:31.650	0,393	0,871	1,852	-0,549	0,183	14,587	27,570	-11,014	-45,599	-48,158	62,258	41,300	37,01															
03:31:41.129	COM8_115200	2000-0-0 5:27:31.670	0,418	0,865	1,832	-0,977	5,798	20,630	27,460	-11,124	-45,242	-48,158	62,258	41,300	36,98															
03:31:41.144	COM3_115200	2000-0-0 5:23:4.085	0,354	-0,813	1,564	-4,761	5,920	-9,644	-29,355	-10,091	155,803	11,400	67,658	-52,142	40,36															
03:31:41.176	COM8_115200	2000-0-0 5:27:31.690	0,376	0,909	1,840	-1,465	10,803	23,804	27,328	-11,157	-44,725	-48,158	62,258	41,300	37,01															
03:31:41.176	COM8_115200	2000-0-0 5:27:31.710	0,406	0,925	1,865	-1,953	6,958	20,142	27,180	-11,206	-44,247	-48,158	62,258	41,300	37,11															
03:31:41.176	COM3_115200	2000-0-0 5:23:4.105	0,339	-0,814	1,598	-6,165	0,977	-9,949	-29,410	-10,135	155,610	11,400	67,658	-52,142	40,17															
03:31:41.176	COM3_115200	2000-0-0 5:23:4.125	0,328	-0,814	1,611	-5,554	-0,122	-12,878	-29,465	-10,256	155,402	11,400	67,658	-52,142	40,20															
03:31:41.191	COM8_115200	2000-0-0 5:27:31.730	0,402	0,895	1,867	-3,418	-0,061	17,090	27,037	-11,316	-43,901	-48,158	62,258	41,300	37,01															
03:31:41.191	COM3_115200	2000-0-0 5:23:4.145	0,375	-0,801	1,598	-4,822	0,610	-16,113	-29,487	-10,415	155,132	11,400	67,658	-52,142	40,36															
03:31:41.223	COM3_115200	2000-0-0 5:23:4.165	0,427	-0,813	1,538	-5,798	0,977	-14,221	-29,509	-10,552	154,847	11,400	67,658	-52,142	40,26															
03:31:41.223	COM8_115200	2000-0-0 5:27:31.750	0,446	0,850	1,842	-1,709	5,981	18,066	26,906	-11,431	-43,572	-48,158	62,258	41,300	36,95															
03:31:41.238	COM8_115200	2000-0-0 5:27:31.770	0,418	0,874	1,815	-0,488	16,907	23,682	26,779	-11,393	-43,061	-48,158	62,258	41,300	36,95															
03:31:41.238	COM3_115200	2000-0-0 5:23:4.185	0,373	-0,799	1,591	-9,277	-7,874	-11,841	-29,608	-10,761	154,666	11,400	67,658	-52,142	40,29															
03:31:41.254	COM8_115200	2000-0-0 5:27:31.790	0,433	0,935	1,833	-0,183	23,132	22,400	26,642	-11,223	-42,435	-48,158	62,258	41,300	36,98															
03:31:41.254	COM3_115200	2000-0-0 5:23:4.205	0,341	-0,794	1,618	-9,460	-11,780	-12,878	-29,745	-11,063	154,556	11,400	67,658	-52,142	40,42															
03:31:41.269	COM8_115200	2000-0-0 5:27:31.810	0,405	0,904	1,873	-3,052	12,268	17,273	26,494	-11,080	-41,929	-48,158	62,258	41,300	37,05															
03:31:41.269	COM3_115200	2000-0-0 5:23:4.225	0,337	-0,788	1,607	-8,057	-9,705	-15,259	-29,861	-11,398	154,418	11,400	67,658	-52,142	40,23															
03:31:41.308	COM8_115200	2000-0-0 5:27:31.830	0,480	0,839	1,897	-0,183	11,047	16,357	26,373	-11,041	-41,534	-48,158	62,258	41,300	37,08															
03:31:41.313	COM3_115200	2000-0-0 5:23:4.245	0,437	-0,791	1,511	-6,897	-4,578	-15,503	-29,921	-11,656	154,193	11,400	67,658	-52,142	40,39															
03:31:41.318	COM8_115200	2000-0-0 5:27:31.850	0,501	0,850	1,864	2,197	17,883	20,203	26,301	-10,948	-41,056	-48,158	62,258	41,300	37,01															
03:31:41.328	COM3_115200	2000-0-0 5:23:4.265	0,395	-0,799	1,521	-8,179	-8,423	-13,245	-30,004	-11,909	154,006	11,400	67,658	-52,142	40,39															
03:31:41.337	COM8_115200	2000-0-0 5:27:31.870	0,451	0,928	1,854	1,648	17,029	19,104	26,241	-10,811	-40,518	-48,158	62,258	41,300	37,20															
03:31:41.341	COM3_115200	2000-0-0 5:23:4.285	0,343	-0,799	1,580	-7,690	-12,695	-12,207	-30,103	-12,217	153,896	11,400	67,658	-52,142	40,39															
03:31:41.357	COM3_115200	2000-0-0 5:23:4.305	0,367	-0,796	1,617	-5,127	-9,766	-13,672	-30,163	-12,541	153,776	11,400	67,658	-52,142	40,29															
03:31:41.357	COM8_115200	2000-0-0 5:27:31.890	0,448	0,909	1,888	-0,793	5,432	14,343	26,169	-10,789	-40,128	-48,158	62,258	41,300	37,11															
03:31:41.372	COM8_115200	2000-0-0 5:27:31.910	0,508	0,840	1,894	1,038	4,028	12,756	26,109	-10,865	-39,864	-48,158	62,258	41,300	37,08															
03:31:41.404	COM8_115200	2000-0-0 5:27:31.930	0,487	0,826	1,871	1,831	8,423	15,259	26,076	-10,887	-39,556	-48,158	62,258	41,300	37,11															
03:31:41.404	COM3_115200	2000-0-0 5:23:4.325	0,417	-0,794	1,569	-2,686	-10,132	-16,479	-30,157	-12,859	153,594	11,400	67,658	-52,142	40,26															
03:31:41.404	COM3_115200	2000-0-0 5:23:4.345	0,427	-0,799	1,501	-2,625	-6,653	-15,442	-30,119	-13,140	153,391	11,400	67,658	-52,142	40,42															
03:31:41.419	COM8_115200	2000-0-0 5:27:31.950	0,528	0,849	1,851	2,930	13,672	18,616	26,032	-10,854	-39,128	-48,158	62,258	41,300	37,05															
03:31:41.430	COM3_115200	2000-0-0 5:23:4.365	0,396	-0,790	1,535	-5,066	-10,376	-14,526	-30,130	-13,442	153,221	11,400	67,658	-52,142	40,20															
03:31:41.438	COM8_115200	2000-0-0 5:27:31.970	0,435	0,918	1,872	4,333	15,869	14,099	26,027	-10,734	-38,677	-48,158	62,258	41,300	36,98															
03:31:41.442	COM3_115200	2000-0-0 5:23:4.385	0,372	-0,788	1,603	-5,920	-10,010	-14,343	-30,174	-13,744	153,073	11,400	67,658	-52,142	40,33															
03:31:41.458	COM8_115200	2000-0-0 5:27:31.990	0,498	0,853	1,898	1,465	2,380	11,169	26,010	-10,739	-38,397	-48,158	62,258	41,300	37,08															
03:31:41.458	COM3_115200	2000-0-0 5:23:4.405	0,388	-0,771	1,603	-4,944	-11,658	-16,296	-30,201	-14,068	152,908	11,400	67,658	-52,142	40,20															
03:31:41.473	COM8_115200	2000-0-0 5:27:32.010	0,501	0,826	1,886	6,165	7,324	10,437	26,043	-10,756	-38,161	-48,158	62,258	41,300	37,05															
03:31:41.473	COM3_115200	2000-0-0 5:23:4.425	0,461	-0,778	1,514	-6,287	-12,512	-16,724	-30,223	-14,420	152,726	11,400	67,658	-52,142	40,17															
03:31:41.504	COM8_115200	2000-0-0 5:27:32.030	0,511	0,845	1,863	8,118	9,216	14,343	26,115	-10,739	-37,848	-48,158	62,258	41,300	37,05															
03:31:41.504	COM8_115200	2000-0-0 5:27:32.050	0,485	0,895	1,858	10,620	11,963	13,611	26,230	-10,690	-37,485	-48,158	62,258	41,300	37,05															
03:31:41.504	COM3_115200	2000-0-0 5:23:4.445	0,406	-0,765	1,515	-10,376	-16,602	-16,541	-30,317	-14,815	152,578	11,400	67,658	-52,142	40,39															
03:31:41.551	COM8_115200	2000-0-0 5:27:32.070	0,489	0,868	1,888	10,437	3,662	11,780	26,367	-10,701	-37,200	-48,158	62,258	41,300	37,08															
03:31:41.551	COM8_115200	2000-0-0 5:27:32.090	0,506	0,808	1,887	12,695	4,456	11,658	26,532	-10,761	-36,953	-48,158	62,258	41,300	37,20															
03:31:41.551	COM3_115200	2000-0-0 5:23:4.465	0,385	-0,757	1,576	-13,977	-21,301	-15,686	-30,515	-15,293	152,507	11,400	67,658	-52,142	40,33															
03:31:41.551	COM3_115200	2000-0-0 5:23:4.485	0,401	-0,745	1,594	-15,259	-23,621	-15,198	-30,751	-15,809	152,474	11,400	67,658	-52,142	40,20															
03:31:41.567	COM3_115200	2000-0-0 5:23:4.505	0,487	-0,756	1,514	-16,724	-24,719	-13,794	-31,014	-16,337	152,463	11,400	67,658	-52,142	40,39															
03:31:41.567	COM8_115200	2000-0-0 5:27:32.110	0,532	0,841	1,845	16,479	7,935	14,648	26,746	-10,805	-36,656	-48,158	62,258	41,300	36,98															
03:31:41.567	COM3_115200	2000-0-0 5:23:4.525	0,417	-0,778	1,495	-19,531	-31,677	-14,526	-31,339	-16,930	152,512	11,400	67,658	-52,142	40,36															
03:31:41.598	COM3_115200	2000-0-0 5:23:4.545	0,405	-0,777	1,540	-21,973	-33,936	-13,000	-31,740	-17,606	152,633	11,400	67,658	-52,142	40,39															
03:31:41.598	COM8_115200	2000-0-0 5:27:32.130	0,499	0,907	1,835	18,738	10,925	12,329	27,021	-10,778	-36,310	-48,158	62,258	41,300	36,98															
03:31:41.614	COM8_115200	2000-0-0 5:27:32.150	0,491	0,855	1,875	19,287	7,202	7,751	27,323	-10,734	-36,057	-48,158	62,258	41,300	37,01															
03:31:41.614	COM3_115200	2000-0-0 5:23:4.565	0,394	-0,758	1,556	-21,851	-34,363	-12,756	-32,162	-18,259	152,776	11,400	67,658	-52,142	40,29															
03:31:41.629	COM8_115200	2000-0-0 5:27:32.170	0,536	0,804	1,875	23,315	3,113	6,531	27,691	-10,767	-35,903	-48,158	62,258	41,300	36,92															
03:31:41.629	COM3_115200	2000-0-0 5:23:4.585	0,453	-0,735	1,474	-21,790	-33,997	-12,329	-32,580	-18,929	152,952	11,400	67,658	-52,142	40,20															
03:31:41.645	COM8_115200	2000-0-0 5:27:32.190	0,519	0,864	1,852	25,269	1,465	6,348	28,130	-10,811	-35,755	-48,158	62,258	41,300	37,05															
03:31:41.661	COM3_115200	2000-0-0 5:23:4.605	0,415	-0,766	1,396	-22,461	-28,015	-7,446	-33,003	-19,457	153,111	11,400	67,658	-52,142	40,36															
03:31:41.676	COM3_115200	2000-0-0 5:23:4.625	0,366	-0,741	1,458	-23,315	-32,532	-7,202	-33,475	-19,979	153,336	11,400	67,658	-52,142	40,33															
03:31:41.676	COM8_115200	2000-0-0 5:27:32.210	0,522	0,879	1,827	24,536	9,583	6,775	28,531	-10,816	-35,557	-48,158	62,258	41,300	37,05															
03:31:41.692	COM3_115200	2000-0-0 5:23:4.645	0,402	-0,709	1,491	-19,531	-29,358	-7,324	-33,898	-20,495	153,567	11,400	67,658	-52,142	40,26															
03:31:41.707	COM8_115200	2000-0-0 5:27:32.230	0,538	0,852	1,858	21,423	3,540	6,409	28,911	-10,789	-35,387	-48,158	62,258	41,300	37,05															
03:31:41.707	COM8_115200	2000-0-0 5:27:32.250	0,581	0,808	1,854	21,729	2,686	7,202	29,257	-10,860	-35,244	-48,158	62,258	41,300	36,95															
03:31:41.707	COM3_115200	2000-0-0 5:23:4.665	0,399	-0,695	1,436	-15,076	-25,696	-7,935	-34,206	-20,956	153,748	11,400	67,658	-52,142	40,29															
03:31:41.739	COM3_115200	2000-0-0 5:23:4.685	0,409	-0,698	1,354	-13,245	-19,470	-6,958	-34,426	-21,292	153,864	11,400	67,658	-52,142	40,33															
03:31:41.739	COM8_115200	2000-0-0 5:27:32.270	0,517	0,826	1,816	19,897	2,563	9,277	29,586	-10,942	-35,074	-48,158	62,258	41,300	36,98															
03:31:41.754	COM8_115200	2000-0-0 5:27:32.290	0,559	0,821	1,807	17,456	4,333	10,315	29,844	-11,030	-34,871	-48,158	62,258	41,300	37,05															
03:31:41.754	COM3_115200	2000-0-0 5:23:4.705	0,342	-0,683	1,395	-12,451	-17,334	-6,226	-34,618	-21,566	153,940	11,400	67,658	-52,142	40,33															
03:31:41.770	COM8_115200	2000-0-0 5:27:32.310	0,542	0,807	1,814	15,991	6,409	9,338	30,064	-11,058	-34,634	-48,158	62,258	41,300	37,11															
03:31:41.770	COM3_115200	2000-0-0 5:23:4.725	0,370	-0,663	1,434	-9,705	-13,489	-6,714	-34,761	-21,802	153,990	11,400	67,658	-52,142	40,26															
03:31:41.786	COM8_115200	2000-0-0 5:27:32.330	0,549	0,786	1,808	14,587	4,395	10,193	30,251	-11,129	-34,409	-48,158	62,258	41,300	36,98															
03:31:41.801	COM3_115200	2000-0-0 5:23:4.745	0,359	-0,658	1,407	-6,226	-8,179	-6,470	-34,805	-21,940	153,979	11,400	67,658	-52,142	40,26															
03:31:41.817	COM8_115200	2000-0-0 5:27:32.350	0,553	0,773	1,786	14,160	8,301	10,986	30,416	-11,162	-34,162	-48,158	62,258	41,300	37,20															
03:31:41.817	COM3_115200	2000-0-0 5:23:4.765	0,404	-0,672	1,334	-5,676	-5,005	-4,700	-34,805	-21,995	153,935	11,400	67,658	-52,142	40,36															
03:31:41.833	COM8_115200	2000-0-0 5:27:32.370	0,545	0,815	1,768	14,404	11,658	12,024	30,569	-11,151	-33,843	-48,158	62,258	41,300	37,01															
03:31:41.833	COM3_115200	2000-0-0 5:23:4.785	0,355	-0,672	1,367	-6,714	-3,906	-3,967	-34,810	-22,022	153,885	11,400	67,658	-52,142	40,36															
03:31:41.848	COM8_115200	2000-0-0 5:27:32.390	0,542	0,828	1,778	12,878	9,949	10,010	30,712	-11,129	-33,547	-48,158	62,258	41,300	36,95															
03:31:41.864	COM3_115200	2000-0-0 5:23:4.805	0,375	-0,667	1,408	-6,531	-0,427	-3,784	-34,821	-22,000	153,825	11,400	67,658	-52,142	40,17															
03:31:41.879	COM8_115200	2000-0-0 5:27:32.410	0,556	0,792	1,799	11,414	5,188	8,911	30,833	-11,146	-33,316	-48,158	62,258	41,300	37,01															
03:31:41.879	COM3_115200	2000-0-0 5:23:4.825	0,368	-0,651	1,410	-5,615	0,305	-3,662	-34,805	-21,934	153,737	11,400	67,658	-52,142	40,23															
03:31:41.911	COM3_115200	2000-0-0 5:23:4.845	0,417	-0,659	1,358	-6,287	-1,221	-3,174	-34,794	-21,874	153,666	11,400	67,658	-52,142	40,17															
03:31:41.926	COM3_115200	2000-0-0 5:23:4.865	0,393	-0,665	1,339	-8,667	-0,366	-2,014	-34,816	-21,813	153,600	11,400	67,658	-52,142	40,29															
03:31:41.942	COM3_115200	2000-0-0 5:23:4.885	0,349	-0,665	1,387	-10,559	-1,770	-2,136	-34,898	-21,769	153,561	11,400	67,658	-52,142	40,26															
03:31:41.942	COM8_115200	2000-0-0 5:27:32.430	0,551	0,768	1,794	10,986	5,615	11,108	30,927	-11,206	-33,074	-48,158	62,258	41,300	37,05															
03:31:41.942	COM8_115200	2000-0-0 5:27:32.450	0,595	0,796	1,779	10,315	10,132	15,564	30,987	-11,266	-32,750	-48,158	62,258	41,300	37,08															
03:31:41.942	COM8_115200	2000-0-0 5:27:32.470	0,562	0,832	1,791	10,254	11,108	12,878	31,042	-11,261	-32,377	-48,158	62,258	41,300	37,01															
03:31:41.957	COM8_115200	2000-0-0 5:27:32.490	0,593	0,805	1,812	7,935	-1,221	12,634	31,086	-11,365	-32,113	-48,158	62,258	41,300	36,92															
03:31:41.957	COM3_115200	2000-0-0 5:23:4.905	0,306	-0,656	1,394	-10,010	-4,272	-2,075	-34,991	-21,736	153,550	11,400	67,658	-52,142	40,42															
03:31:41.973	COM8_115200	2000-0-0 5:27:32.510	0,495	0,748	1,797	9,216	-0,549	11,169	31,130	-11,618	-31,948	-48,158	62,258	41,300	36,86															
03:31:41.973	COM3_115200	2000-0-0 5:23:4.925	0,480	-0,669	1,327	-10,620	0,000	-0,671	-35,101	-21,709	153,534	11,400	67,658	-52,142	40,36															
03:31:41.989	COM8_115200	2000-0-0 5:27:32.530	0,586	0,763	1,789	6,897	-11,719	15,137	31,190	-11,887	-31,794	-48,158	62,258	41,300	37,17															
03:31:42.020	COM8_115200	2000-0-0 5:27:32.550	0,614	0,809	1,751	10,071	-2,441	14,587	31,229	-12,222	-31,575	-48,158	62,258	41,300	36,98															
03:31:42.020	COM3_115200	2000-0-0 5:23:4.945	0,375	-0,646	1,365	-14,221	2,197	-1,282	-35,228	-21,605	153,468	11,400	67,658	-52,142	40,20															
03:31:42.020	COM3_115200	2000-0-0 5:23:4.965	0,379	-0,652	1,397	-16,602	0,366	-1,038	-35,420	-21,522	153,441	11,400	67,658	-52,142	40,07															
03:31:42.051	COM8_115200	2000-0-0 5:27:32.570	0,534	0,801	1,774	8,179	-11,108	11,841	31,295	-12,497	-31,432	-48,158	62,258	41,300	36,98															
03:31:42.051	COM3_115200	2000-0-0 5:23:4.985	0,385	-0,649	1,400	-16,113	1,404	-1,160	-35,612	-21,423	153,380	11,400	67,658	-52,142	40,42															
03:31:42.051	COM8_115200	2000-0-0 5:27:32.590	0,602	0,750	1,768	7,080	-17,639	14,343	31,333	-12,953	-31,366	-48,158	62,258	41,300	37,11															
03:31:42.067	COM3_115200	2000-0-0 5:23:5.005	0,417	-0,645	1,373	-16,113	-5,127	-2,502	-35,804	-21,401	153,358	11,400	67,658	-52,142	40,26															
03:31:42.082	COM3_115200	2000-0-0 5:23:5.025	0,419	-0,648	1,367	-16,785	-9,766	-1,099	-36,035	-21,473	153,419	11,400	67,658	-52,142	40,45															
03:31:42.082	COM8_115200	2000-0-0 5:27:32.610	0,576	0,775	1,740	9,521	-11,108	15,320	31,393	-13,381	-31,251	-48,158	62,258	41,300	37,08															
03:31:42.098	COM3_115200	2000-0-0 5:23:5.045	0,377	-0,639	1,381	-19,104	-14,587	0,244	-36,326	-21,599	153,561	11,400	67,658	-52,142	40,42															
03:31:42.098	COM8_115200	2000-0-0 5:27:32.630	0,593	0,803	1,721	9,949	-9,827	15,747	31,459	-13,755	-31,086	-48,158	62,258	41,300	37,11															
03:31:42.114	COM8_115200	2000-0-0 5:27:32.650	0,583	0,786	1,724	12,390	-3,967	13,611	31,553	-14,046	-30,894	-48,158	62,258	41,300	36,86															
03:31:42.114	COM3_115200	2000-0-0 5:23:5.065	0,410	-0,643	1,339	-21,118	-14,709	3,662	-36,678	-21,725	153,776	11,400	67,658	-52,142	40,26															
03:31:42.129	COM8_115200	2000-0-0 5:27:32.670	0,572	0,765	1,737	13,550	-7,690	13,611	31,690	-14,310	-30,718	-48,158	62,258	41,300	36,98															
03:31:42.129	COM3_115200	2000-0-0 5:23:5.085	0,392	-0,651	1,287	-22,583	-14,526	4,761	-37,073	-21,824	154,017	11,400	67,658	-52,142	40,23															
03:31:42.161	COM3_115200	2000-0-0 5:23:5.105	0,361	-0,643	1,325	-22,278	-15,503	4,395	-37,496	-21,918	154,286	11,400	67,658	-52,142	40,29															
03:31:42.161	COM8_115200	2000-0-0 5:27:32.690	0,663	0,774	1,727	16,296	-7,813	14,404	31,855	-14,639	-30,558	-48,158	62,258	41,300	37,11															
03:31:42.176	COM8_115200	2000-0-0 5:27:32.710	0,640	0,808	1,753	20,508	-6,042	7,751	32,119	-14,886	-30,443	-48,158	62,258	41,300	37,01															
03:31:42.176	COM3_115200	2000-0-0 5:23:5.125	0,337	-0,656	1,343	-18,433	-10,010	4,822	-37,826	-21,978	154,495	11,400	67,658	-52,142	40,29															
03:31:42.192	COM8_115200	2000-0-0 5:27:32.730	0,631	0,755	1,737	20,630	-15,076	6,531	32,443	-15,183	-30,460	-48,158	62,258	41,300	37,05															
03:31:42.192	COM3_115200	2000-0-0 5:23:5.145	0,399	-0,645	1,286	-15,320	-4,517	5,676	-38,062	-21,918	154,644	11,400	67,658	-52,142	40,39															
03:31:42.223	COM3_115200	2000-0-0 5:23:5.165	0,415	-0,649	1,284	-14,465	-3,784	5,371	-38,260	-21,813	154,759	11,400	67,658	-52,142	40,26															
03:31:42.223	COM8_115200	2000-0-0 5:27:32.750	0,608	0,711	1,714	22,949	-8,606	6,104	32,778	-15,458	-30,454	-48,158	62,258	41,300	37,08															
03:31:42.239	COM8_115200	2000-0-0 5:27:32.770	0,623	0,734	1,665	22,278	-3,967	8,911	33,096	-15,683	-30,377	-48,158	62,258	41,300	36,98															
03:31:42.239	COM3_115200	2000-0-0 5:23:5.185	0,325	-0,622	1,341	-13,916	-7,202	6,104	-38,452	-21,753	154,913	11,400	67,658	-52,142	40,29															
03:31:42.286	COM8_115200	2000-0-0 5:27:32.790	0,622	0,726	1,690	22,949	2,502	4,700	33,404	-15,765	-30,262	-48,158	62,258	41,300	37,17															
03:31:42.286	COM3_115200	2000-0-0 5:23:5.205	0,324	-0,606	1,317	-11,963	-6,897	5,371	-38,617	-21,720	155,083	11,400	67,658	-52,142	40,36															
03:31:42.286	COM3_115200	2000-0-0 5:23:5.225	0,374	-0,614	1,267	-10,925	-6,104	5,737	-38,749	-21,643	155,237	11,400	67,658	-52,142	40,20															
03:31:42.301	COM3_115200	2000-0-0 5:23:5.245	0,337	-0,607	1,290	-10,681	-3,662	5,188	-38,859	-21,566	155,352	11,400	67,658	-52,142	40,33															
03:31:42.301	COM8_115200	2000-0-0 5:27:32.810	0,608	0,685	1,684	20,142	2,197	5,432	33,673	-15,809	-30,152	-48,158	62,258	41,300	37,08															
03:31:42.301	COM8_115200	2000-0-0 5:27:32.830	0,619	0,683	1,702	20,142	5,493	7,629	33,904	-15,848	-29,982	-48,158	62,258	41,300	37,01															
03:31:42.317	COM8_115200	2000-0-0 5:27:32.850	0,664	0,694	1,688	19,470	4,883	8,606	34,107	-15,881	-29,773	-48,158	62,258	41,300	36,98															
03:31:42.317	COM3_115200	2000-0-0 5:23:5.265	0,320	-0,595	1,326	-7,446	-3,235	3,845	-38,914	-21,478	155,457	11,400	67,658	-52,142	40,33															
03:31:42.338	COM8_115200	2000-0-0 5:27:32.870	0,623	0,701	1,686	18,250	10,437	6,592	34,288	-15,864	-29,548	-48,158	62,258	41,300	37,01															
03:31:42.343	COM3_115200	2000-0-0 5:23:5.285	0,325	-0,601	1,297	-5,371	-1,038	3,235	-38,897	-21,374	155,517	11,400	67,658	-52,142	40,11															
03:31:42.360	COM8_115200	2000-0-0 5:27:32.890	0,629	0,720	1,680	15,503	6,470	7,813	34,437	-15,837	-29,317	-48,158	62,258	41,300	36,98															
03:31:42.367	COM3_115200	2000-0-0 5:23:5.305	0,353	-0,604	1,254	-5,737	0,000	3,601	-38,859	-21,248	155,544	11,400	67,658	-52,142	40,42															
03:31:42.375	COM8_115200	2000-0-0 5:27:32.910	0,629	0,689	1,695	12,878	5,615	9,949	34,503	-15,881	-29,097	-48,158	62,258	41,300	37,01															
03:31:42.375	COM3_115200	2000-0-0 5:23:5.325	0,323	-0,608	1,296	-5,859	-2,991	3,418	-38,842	-21,138	155,610	11,400	67,658	-52,142	40,29															
03:31:42.390	COM8_115200	2000-0-0 5:27:32.930	0,644	0,712	1,693	10,986	0,366	10,010	34,552	-15,996	-28,894	-48,158	62,258	41,300	36,98															
03:31:42.390	COM3_115200	2000-0-0 5:23:5.345	0,321	-0,596	1,317	-4,272	0,366	4,272	-38,798	-21,017	155,671	11,400	67,658	-52,142	40,20															
03:31:42.406	COM8_115200	2000-0-0 5:27:32.950	0,645	0,695	1,688	10,742	0,000	9,460	34,579	-16,144	-28,724	-48,158	62,258	41,300	37,01															
03:31:42.422	COM3_115200	2000-0-0 5:23:5.365	0,309	-0,582	1,291	-3,906	2,991	3,296	-38,721	-20,847	155,682	11,400	67,658	-52,142	40,26															
03:31:42.441	COM8_115200	2000-0-0 5:27:32.970	0,614	0,662	1,688	9,827	-2,747	9,766	34,596	-16,298	-28,570	-48,158	62,258	41,300	36,95															
03:31:42.445	COM3_115200	2000-0-0 5:23:5.385	0,318	-0,578	1,299	-4,883	2,319	2,625	-38,650	-20,682	155,676	11,400	67,658	-52,142	40,20															
03:31:42.458	COM3_115200	2000-0-0 5:23:5.405	0,354	-0,601	1,284	-8,179	0,061	2,747	-38,633	-20,533	155,698	11,400	67,658	-52,142	40,23															
03:31:42.458	COM8_115200	2000-0-0 5:27:32.990	0,614	0,667	1,678	8,728	-3,296	12,085	34,601	-16,523	-28,422	-48,158	62,258	41,300	37,14															
03:31:42.474	COM8_115200	2000-0-0 5:27:33.010	0,656	0,678	1,665	9,827	-1,953	12,634	34,585	-16,732	-28,224	-48,158	62,258	41,300	37,05															
03:31:42.474	COM3_115200	2000-0-0 5:23:5.425	0,305	-0,584	1,344	-9,155	1,160	2,625	-38,650	-20,407	155,693	11,400	67,658	-52,142	40,26															
03:31:42.489	COM8_115200	2000-0-0 5:27:33.030	0,617	0,650	1,680	7,935	0,671	12,634	34,547	-16,897	-28,004	-48,158	62,258	41,300	37,08															
03:31:42.505	COM3_115200	2000-0-0 5:23:5.445	0,331	-0,584	1,331	-9,033	0,183	2,930	-38,666	-20,270	155,715	11,400	67,658	-52,142	40,29															
03:31:42.521	COM8_115200	2000-0-0 5:27:33.050	0,634	0,633	1,668	7,996	-0,549	15,259	34,486	-17,089	-27,762	-48,158	62,258	41,300	37,01															
03:31:42.521	COM3_115200	2000-0-0 5:23:5.465	0,352	-0,567	1,285	-10,498	1,343	0,793	-38,683	-20,143	155,687	11,400	67,658	-52,142	40,33															
03:31:42.536	COM8_115200	2000-0-0 5:27:33.070	0,631	0,633	1,654	9,338	1,282	17,456	34,420	-17,292	-27,449	-48,158	62,258	41,300	37,05															
03:31:42.552	COM3_115200	2000-0-0 5:23:5.485	0,338	-0,581	1,281	-13,245	-0,122	-1,282	-38,743	-20,072	155,654	11,400	67,658	-52,142	40,29															
03:31:42.552	COM3_115200	2000-0-0 5:23:5.505	0,324	-0,602	1,335	-12,878	-3,845	-2,014	-38,831	-20,050	155,643	11,400	67,658	-52,142	40,26															
03:31:42.568	COM8_115200	2000-0-0 5:27:33.090	0,638	0,662	1,656	9,705	-1,404	17,578	34,376	-17,518	-27,147	-48,158	62,258	41,300	36,86															
03:31:42.568	COM8_115200	2000-0-0 5:27:33.110	0,655	0,657	1,654	9,033	-3,235	18,005	34,321	-17,792	-26,873	-48,158	62,258	41,300	37,05															
03:31:42.583	COM3_115200	2000-0-0 5:23:5.525	0,326	-0,587	1,351	-11,963	-5,615	-0,732	-38,908	-20,050	155,660	11,400	67,658	-52,142	40,26															
03:31:42.599	COM8_115200	2000-0-0 5:27:33.130	0,666	0,654	1,642	11,536	0,366	18,799	34,288	-18,034	-26,548	-48,158	62,258	41,300	37,08															
03:31:42.599	COM3_115200	2000-0-0 5:23:5.545	0,366	-0,562	1,274	-12,878	-7,141	-2,075	-38,990	-20,089	155,693	11,400	67,658	-52,142	40,33															
03:31:42.614	COM8_115200	2000-0-0 5:27:33.150	0,648	0,665	1,635	12,451	1,587	19,836	34,266	-18,243	-26,186	-48,158	62,258	41,300	37,01															
03:31:42.646	COM8_115200	2000-0-0 5:27:33.170	0,643	0,656	1,673	12,634	-0,854	21,423	34,255	-18,479	-25,807	-48,158	62,258	41,300	36,92															
03:31:42.646	COM8_115200	2000-0-0 5:27:33.190	0,672	0,627	1,674	13,123	-3,540	23,254	34,244	-18,809	-25,444	-48,158	62,258	41,300	36,98															
03:31:42.661	COM3_115200	2000-0-0 5:23:5.565	0,352	-0,586	1,263	-15,686	-10,559	-2,930	-39,133	-20,187	155,764	11,400	67,658	-52,142	40,39															
03:31:42.661	COM3_115200	2000-0-0 5:23:5.585	0,299	-0,566	1,332	-16,663	-10,315	1,343	-39,326	-20,270	155,874	11,400	67,658	-52,142	40,39															
03:31:42.693	COM8_115200	2000-0-0 5:27:33.210	0,721	0,627	1,660	17,334	3,967	24,048	34,266	-19,089	-25,005	-48,158	62,258	41,300	37,05															
03:31:42.693	COM8_115200	2000-0-0 5:27:33.230	0,653	0,617	1,677	17,944	7,446	24,231	34,305	-19,254	-24,494	-48,158	62,258	41,300	36,95															
03:31:42.693	COM3_115200	2000-0-0 5:23:5.605	0,299	-0,513	1,330	-15,625	-5,676	0,366	-39,496	-20,308	155,995	11,400	67,658	-52,142	40,23															
03:31:42.693	COM3_115200	2000-0-0 5:23:5.625	0,351	-0,542	1,227	-18,250	-2,808	0,610	-39,661	-20,248	156,028	11,400	67,658	-52,142	40,36															
03:31:42.708	COM3_115200	2000-0-0 5:23:5.645	0,336	-0,577	1,268	-18,799	-5,188	-3,113	-39,847	-20,270	156,039	11,400	67,658	-52,142	40,39															
03:31:42.708	COM3_115200	2000-0-0 5:23:5.665	0,311	-0,542	1,312	-17,944	-4,761	2,380	-40,034	-20,248	156,088	11,400	67,658	-52,142	40,17															
03:31:42.724	COM8_115200	2000-0-0 5:27:33.250	0,669	0,613	1,659	16,846	-1,221	25,574	34,332	-19,506	-24,011	-48,158	62,258	41,300	37,14															
03:31:42.724	COM8_115200	2000-0-0 5:27:33.270	0,732	0,600	1,642	17,761	-0,305	27,344	34,354	-19,847	-23,549	-48,158	62,258	41,300	37,08															
03:31:42.739	COM3_115200	2000-0-0 5:23:5.685	0,289	-0,519	1,280	-16,724	-1,892	-1,526	-40,177	-20,226	156,105	11,400	67,658	-52,142	40,26															
03:31:42.755	COM8_115200	2000-0-0 5:27:33.290	0,681	0,565	1,653	20,386	5,127	28,076	34,398	-20,110	-23,005	-48,158	62,258	41,300	36,86															
03:31:42.755	COM3_115200	2000-0-0 5:23:5.705	0,333	-0,528	1,248	-18,860	-2,502	-2,075	-40,347	-20,193	156,121	11,400	67,658	-52,142	40,29															
03:31:42.770	COM3_115200	2000-0-0 5:23:5.725	0,348	-0,556	1,220	-20,691	-5,798	0,854	-40,551	-20,165	156,132	11,400	67,658	-52,142	40,39															
03:31:42.786	COM8_115200	2000-0-0 5:27:33.310	0,673	0,569	1,670	20,203	1,831	27,771	34,453	-20,385	-22,484	-48,158	62,258	41,300	37,01															
03:31:42.802	COM3_115200	2000-0-0 5:23:5.745	0,298	-0,533	1,273	-20,935	-3,906	-0,305	-40,770	-20,160	156,160	11,400	67,658	-52,142	40,20															
03:31:42.802	COM8_115200	2000-0-0 5:27:33.330	0,699	0,562	1,641	20,142	-5,066	30,518	34,497	-20,759	-21,956	-48,158	62,258	41,300	37,08															
03:31:42.818	COM8_115200	2000-0-0 5:27:33.350	0,722	0,544	1,637	21,179	-7,507	31,433	34,568	-21,237	-21,484	-48,158	62,258	41,300	36,98															
03:31:42.818	COM3_115200	2000-0-0 5:23:5.765	0,290	-0,512	1,274	-20,203	-0,977	0,610	-40,974	-20,099	156,176	11,400	67,658	-52,142	40,42															
03:31:42.833	COM8_115200	2000-0-0 5:27:33.370	0,730	0,529	1,642	24,414	-4,333	29,785	34,673	-21,687	-21,000	-48,158	62,258	41,300	36,98															
03:31:42.833	COM3_115200	2000-0-0 5:23:5.785	0,313	-0,521	1,196	-23,682	-0,793	-0,854	-41,204	-20,028	156,160	11,400	67,658	-52,142	40,26															
03:31:42.849	COM8_115200	2000-0-0 5:27:33.390	0,694	0,521	1,623	25,391	-1,038	30,334	34,794	-22,044	-20,462	-48,158	62,258	41,300	36,92															
03:31:42.849	COM3_115200	2000-0-0 5:23:5.805	0,334	-0,544	1,175	-27,893	-4,944	-0,122	-41,506	-19,984	156,160	11,400	67,658	-52,142	40,39															
03:31:42.880	COM8_115200	2000-0-0 5:27:33.410	0,717	0,517	1,601	22,644	-7,507	33,264	34,887	-22,484	-19,935	-48,158	62,258	41,300	36,92															
03:31:42.880	COM3_115200	2000-0-0 5:23:5.825	0,292	-0,513	1,269	-24,658	-0,854	1,343	-41,808	-19,929	156,171	11,400	67,658	-52,142	40,29															
03:31:42.896	COM3_115200	2000-0-0 5:23:5.845	0,247	-0,458	1,237	-26,428	-9,521	2,136	-42,105	-19,874	156,231	11,400	67,658	-52,142	40,23															
03:31:42.896	COM8_115200	2000-0-0 5:27:33.430	0,776	0,529	1,598	23,499	-12,146	33,630	34,975	-23,049	-19,446	-48,158	62,258	41,300	36,95															
03:31:42.911	COM8_115200	2000-0-0 5:27:33.450	0,733	0,506	1,582	22,583	-11,536	31,494	35,074	-23,599	-18,990	-48,158	62,258	41,300	37,08															
03:31:42.911	COM3_115200	2000-0-0 5:23:5.865	0,396	-0,495	1,119	-34,668	-10,010	0,244	-42,550	-19,929	156,401	11,400	67,658	-52,142	40,36															
03:31:42.942	COM3_115200	2000-0-0 5:23:5.885	0,323	-0,559	1,196	-28,625	-4,944	2,075	-42,979	-19,962	156,489	11,400	67,658	-52,142	40,17															
03:31:42.942	COM8_115200	2000-0-0 5:27:33.470	0,752	0,521	1,581	20,935	-12,817	30,212	35,145	-24,126	-18,561	-48,158	62,258	41,300	36,98															
03:31:42.958	COM3_115200	2000-0-0 5:23:5.905	0,274	-0,492	1,204	-25,452	-3,662	3,662	-43,292	-19,885	156,588	11,400	67,658	-52,142	40,39															
03:31:42.958	COM8_115200	2000-0-0 5:27:33.490	0,807	0,505	1,568	18,127	-20,874	30,151	35,189	-24,758	-18,232	-48,158	62,258	41,300	37,01															
03:31:42.974	COM8_115200	2000-0-0 5:27:33.510	0,816	0,508	1,542	21,301	-21,362	26,001	35,288	-25,417	-17,968	-48,158	62,258	41,300	37,01															
03:31:42.974	COM3_115200	2000-0-0 5:23:5.925	0,296	-0,461	1,155	-26,245	-5,554	2,380	-43,583	-19,841	156,671	11,400	67,658	-52,142	40,26															
03:31:43.005	COM8_115200	2000-0-0 5:27:33.530	0,758	0,484	1,566	18,860	-22,217	28,015	35,398	-26,065	-17,737	-48,158	62,258	41,300	37,05															
03:31:43.005	COM8_115200	2000-0-0 5:27:33.550	0,746	0,454	1,534	17,395	-23,254	27,283	35,447	-26,741	-17,496	-48,158	62,258	41,300	37,05															
03:31:43.021	COM3_115200	2000-0-0 5:23:5.945	0,353	-0,477	1,127	-27,039	-9,338	2,625	-43,923	-19,858	156,808	11,400	67,658	-52,142	40,26															
03:31:43.036	COM3_115200	2000-0-0 5:23:5.965	0,302	-0,504	1,182	-24,902	-9,766	5,310	-44,264	-19,858	156,995	11,400	67,658	-52,142	40,36															
03:31:43.036	COM3_115200	2000-0-0 5:23:5.985	0,245	-0,425	1,247	-20,630	-5,249	5,554	-44,500	-19,808	157,148	11,400	67,658	-52,142	40,29															
03:31:43.036	COM8_115200	2000-0-0 5:27:33.570	0,782	0,433	1,521	16,418	-20,020	28,198	35,453	-27,383	-17,227	-48,158	62,258	41,300	36,95															
03:31:43.052	COM8_115200	2000-0-0 5:27:33.590	0,784	0,416	1,541	18,127	-15,625	26,428	35,458	-27,955	-16,913	-48,158	62,258	41,300	37,14															
03:31:43.067	COM3_115200	2000-0-0 5:23:6.005	0,268	-0,384	1,151	-22,217	-3,479	5,371	-44,692	-19,698	157,247	11,400	67,658	-52,142	40,33															
03:31:43.067	COM8_115200	2000-0-0 5:27:33.610	0,741	0,354	1,547	18,127	-3,174	29,297	35,392	-28,361	-16,452	-48,158	62,258	41,300	37,05															
03:31:43.067	COM3_115200	2000-0-0 5:23:6.025	0,333	-0,456	1,135	-26,001	-10,559	1,526	-44,984	-19,688	157,429	11,400	67,658	-52,142	40,23															
03:31:43.099	COM3_115200	2000-0-0 5:23:6.045	0,292	-0,438	1,205	-21,790	-1,404	5,188	-45,187	-19,638	157,516	11,400	67,658	-52,142	40,23															
03:31:43.099	COM8_115200	2000-0-0 5:27:33.630	0,717	0,382	1,538	19,043	-1,526	28,992	35,299	-28,691	-15,892	-48,158	62,258	41,300	37,20															
03:31:43.114	COM8_115200	2000-0-0 5:27:33.650	0,770	0,373	1,521	16,418	-6,042	30,273	35,162	-29,075	-15,348	-48,158	62,258	41,300	36,79															
03:31:43.114	COM3_115200	2000-0-0 5:23:6.065	0,230	-0,397	1,246	-19,470	3,479	1,343	-45,313	-19,506	157,511	11,400	67,658	-52,142	40,29															
03:31:43.130	COM8_115200	2000-0-0 5:27:33.670	0,762	0,333	1,548	19,897	-1,526	30,212	35,024	-29,432	-14,771	-48,158	62,258	41,300	37,08															
03:31:43.130	COM3_115200	2000-0-0 5:23:6.085	0,275	-0,374	1,165	-20,813	4,822	1,282	-45,406	-19,347	157,440	11,400	67,658	-52,142	40,39															
03:31:43.146	COM8_115200	2000-0-0 5:27:33.690	0,718	0,340	1,542	20,630	1,160	30,334	34,904	-29,724	-14,156	-48,158	62,258	41,300	37,08															
03:31:43.161	COM3_115200	2000-0-0 5:23:6.105	0,309	-0,414	1,129	-26,001	1,709	-0,916	-45,549	-19,215	157,363	11,400	67,658	-52,142	40,36															
03:31:43.177	COM3_115200	2000-0-0 5:23:6.125	0,247	-0,420	1,212	-23,926	1,526	1,770	-45,720	-19,122	157,324	11,400	67,658	-52,142	40,36															
03:31:43.177	COM8_115200	2000-0-0 5:27:33.710	0,789	0,356	1,526	20,630	-0,793	31,555	34,755	-30,037	-13,502	-48,158	62,258	41,300	36,98															
03:31:43.192	COM8_115200	2000-0-0 5:27:33.730	0,783	0,338	1,547	21,973	-0,366	31,494	34,640	-30,350	-12,859	-48,158	62,258	41,300	36,95															
03:31:43.192	COM3_115200	2000-0-0 5:23:6.145	0,230	-0,392	1,235	-22,644	0,916	2,502	-45,873	-18,990	157,313	11,400	67,658	-52,142	40,29															
03:31:43.208	COM8_115200	2000-0-0 5:27:33.750	0,783	0,314	1,573	33,691	1,770	17,883	34,607	-30,613	-12,233	-48,158	62,258	41,300	37,14															
03:31:43.223	COM3_115200	2000-0-0 5:23:6.165	0,259	-0,339	1,117	-24,414	0,244	2,502	-46,022	-18,875	157,308	11,400	67,658	-52,142	40,33															
03:31:43.239	COM3_115200	2000-0-0 5:23:6.185	0,292	-0,375	1,148	-35,461	-4,395	2,563	-46,362	-18,792	157,390	11,400	67,658	-52,142	40,36															
03:31:43.239	COM8_115200	2000-0-0 5:27:33.770	0,756	0,275	1,531	28,625	0,427	41,260	34,525	-31,009	-11,525	-48,158	62,258	41,300	36,98															
03:31:43.255	COM8_115200	2000-0-0 5:27:33.790	0,789	0,326	1,496	31,372	-1,282	34,973	34,503	-31,328	-10,778	-48,158	62,258	41,300	36,92															
03:31:43.255	COM3_115200	2000-0-0 5:23:6.205	0,239	-0,389	1,205	-32,959	-4,578	3,601	-46,719	-18,759	157,440	11,400	67,658	-52,142	40,42															
03:31:43.271	COM3_115200	2000-0-0 5:23:6.225	0,261	-0,387	1,194	-34,363	-4,395	3,479	-47,126	-18,688	157,577	11,400	67,658	-52,142	40,33															
03:31:43.286	COM8_115200	2000-0-0 5:27:33.810	0,768	0,315	1,534	29,602	-12,329	14,038	34,717	-31,652	-10,404	-48,158	62,258	41,300	36,98															
03:31:43.317	COM3_115200	2000-0-0 5:23:6.245	0,322	-0,321	1,120	-35,828	-3,845	6,104	-47,483	-18,600	157,676	11,400	67,658	-52,142	40,17															
03:31:43.333	COM3_115200	2000-0-0 5:23:6.265	0,252	-0,338	1,140	-40,710	-4,517	0,122	-47,933	-18,556	157,736	11,400	67,658	-52,142	40,29															
03:31:43.333	COM8_115200	2000-0-0 5:27:33.830	0,817	0,234	1,516	31,128	-5,554	39,795	34,832	-32,080	-9,998	-48,158	62,258	41,300	36,98															
03:31:43.333	COM8_115200	2000-0-0 5:27:33.850	0,796	0,249	1,484	37,659	-7,080	39,490	34,849	-32,591	-9,141	-48,158	62,258	41,300	37,01															
03:31:43.333	COM8_115200	2000-0-0 5:27:33.870	0,803	0,275	1,491	35,583	-11,719	35,645	34,991	-33,074	-8,525	-48,158	62,258	41,300	37,01															
03:31:43.333	COM3_115200	2000-0-0 5:23:6.285	0,271	-0,372	1,168	-40,771	-6,470	-0,854	-48,444	-18,583	157,808	11,400	67,658	-52,142	40,42															
03:31:43.403	COM8_115200	2000-0-0 5:27:33.890	0,808	0,246	1,512	32,227	-13,428	39,917	35,041	-33,684	-7,894	-48,158	62,258	41,300	36,95															
03:31:43.405	COM8_115200	2000-0-0 5:27:33.910	0,779	0,201	1,482	30,457	-10,620	40,527	35,008	-34,261	-7,196	-48,158	62,258	41,300	36,95															
03:31:43.406	COM8_115200	2000-0-0 5:27:33.930	0,859	0,213	1,436	27,771	-11,108	41,687	34,876	-34,816	-6,422	-48,158	62,258	41,300	37,05															
03:31:43.407	COM3_115200	2000-0-0 5:23:6.305	0,266	-0,320	1,168	-39,612	-3,784	0,183	-48,884	-18,589	157,857	11,400	67,658	-52,142	40,17															
03:31:43.407	COM3_115200	2000-0-0 5:23:6.325	0,317	-0,277	1,016	-43,762	-7,385	0,854	-49,345	-18,572	157,912	11,400	67,658	-52,142	40,33															
03:31:43.423	COM8_115200	2000-0-0 5:27:33.950	0,867	0,237	1,438	28,503	-20,325	21,057	34,942	-35,305	-5,999	-48,158	62,258	41,300	37,01															
03:31:43.423	COM3_115200	2000-0-0 5:23:6.345	0,311	-0,313	1,128	-46,326	-2,747	-7,385	-49,883	-18,660	157,912	11,400	67,658	-52,142	40,23															
03:31:43.423	COM3_115200	2000-0-0 5:23:6.365	0,243	-0,345	1,125	-44,800	-2,319	-2,869	-50,400	-18,699	157,863	11,400	67,658	-52,142	40,39															
03:31:43.438	COM8_115200	2000-0-0 5:27:33.970	0,858	0,197	1,411	23,193	-33,386	40,771	34,997	-36,046	-5,685	-48,158	62,258	41,300	36,98															
03:31:43.438	COM3_115200	2000-0-0 5:23:6.385	0,294	-0,275	1,084	-41,382	-8,911	-4,639	-50,839	-18,776	157,868	11,400	67,658	-52,142	40,33															
03:31:43.458	COM3_115200	2000-0-0 5:23:6.405	0,304	-0,251	0,976	-44,434	-14,648	-4,578	-51,328	-18,968	157,994	11,400	67,658	-52,142	40,26															
03:31:43.460	COM8_115200	2000-0-0 5:27:33.990	0,746	0,167	1,474	23,499	-31,799	36,987	34,937	-37,018	-5,334	-48,158	62,258	41,300	37,05															
03:31:43.474	COM8_115200	2000-0-0 5:27:34.010	0,833	0,152	1,426	19,287	-17,334	37,903	34,772	-37,678	-4,779	-48,158	62,258	41,300	36,95															
03:31:43.474	COM3_115200	2000-0-0 5:23:6.425	0,292	-0,267	1,046	-28,870	-19,714	-6,531	-51,795	-19,221	158,198	11,400	67,658	-52,142	40,36															
03:31:43.490	COM8_115200	2000-0-0 5:27:34.030	0,910	0,147	1,425	20,813	-19,043	35,400	34,492	-38,320	-4,191	-48,158	62,258	41,300	36,98															
03:31:43.490	COM3_115200	2000-0-0 5:23:6.445	0,244	-0,258	1,138	-39,978	-19,531	-5,371	-52,180	-19,517	158,401	11,400	67,658	-52,142	40,23															
03:31:43.506	COM8_115200	2000-0-0 5:27:34.050	0,721	0,120	1,452	19,653	-18,982	35,461	34,277	-38,919	-3,609	-48,158	62,258	41,300	37,05															
03:31:43.521	COM3_115200	2000-0-0 5:23:6.465	0,271	-0,231	1,035	-30,640	-13,000	-4,272	-52,465	-19,709	158,538	11,400	67,658	-52,142	40,20															
03:31:43.537	COM3_115200	2000-0-0 5:23:6.485	0,280	-0,183	1,053	-26,184	-6,836	-7,751	-52,586	-19,858	158,566	11,400	67,658	-52,142	40,14															
03:31:43.537	COM8_115200	2000-0-0 5:27:34.070	0,768	0,059	1,409	13,794	-25,635	35,400	33,986	-39,611	-3,098	-48,158	62,258	41,300	37,08															
03:31:43.552	COM8_115200	2000-0-0 5:27:34.090	0,838	0,048	1,418	16,724	-11,780	34,912	33,613	-40,188	-2,472	-48,158	62,258	41,300	37,01															
03:31:43.568	COM8_115200	2000-0-0 5:27:34.110	0,778	0,042	1,440	19,653	2,014	33,325	33,157	-40,463	-1,637	-48,158	62,258	41,300	36,98															
03:31:43.568	COM3_115200	2000-0-0 5:23:6.505	0,242	-0,157	1,077	-26,489	-7,935	-6,714	-52,657	-19,995	158,544	11,400	67,658	-52,142	40,39															
03:31:43.568	COM3_115200	2000-0-0 5:23:6.525	0,298	-0,195	1,009	-29,663	-2,808	-10,620	-52,745	-20,171	158,428	11,400	67,658	-52,142	40,36															
03:31:43.584	COM3_115200	2000-0-0 5:23:6.545	0,243	-0,188	1,027	-23,193	-1,038	-14,526	-52,701	-20,325	158,209	11,400	67,658	-52,142	40,39															
03:31:43.615	COM8_115200	2000-0-0 5:27:34.130	0,735	0,025	1,439	19,653	4,395	33,203	32,668	-40,649	-0,736	-48,158	62,258	41,300	36,95															
03:31:43.615	COM8_115200	2000-0-0 5:27:34.150	0,801	-0,008	1,411	19,409	2,991	31,860	32,173	-40,814	0,148	-48,158	62,258	41,300	36,92															
03:31:43.615	COM3_115200	2000-0-0 5:23:6.565	0,227	-0,130	1,056	-23,193	5,676	-14,893	-52,531	-20,402	157,917	11,400	67,658	-52,142	40,23															
03:31:43.631	COM8_115200	2000-0-0 5:27:34.170	0,821	-0,002	1,419	23,743	5,432	30,518	31,734	-40,941	1,027	-48,158	62,258	41,300	36,89															
03:31:43.631	COM3_115200	2000-0-0 5:23:6.585	0,226	-0,130	0,993	-22,644	9,644	-15,930	-52,328	-20,424	157,533	11,400	67,658	-52,142	40,45															
03:31:43.646	COM8_115200	2000-0-0 5:27:34.190	0,776	-0,012	1,429	25,879	6,470	29,541	31,360	-41,023	1,901	-48,158	62,258	41,300	37,05															
03:31:43.662	COM3_115200	2000-0-0 5:23:6.605	0,296	-0,153	0,994	-23,254	14,648	-17,212	-52,147	-20,462	157,044	11,400	67,658	-52,142	40,26															
03:31:43.677	COM3_115200	2000-0-0 5:23:6.625	0,245	-0,172	1,014	-25,085	10,864	-3,662	-51,993	-20,385	156,632	11,400	67,658	-52,142	40,42															
03:31:43.677	COM8_115200	2000-0-0 5:27:34.210	0,756	-0,020	1,400	25,513	4,028	29,663	31,009	-41,105	2,747	-48,158	62,258	41,300	37,01															
03:31:43.693	COM3_115200	2000-0-0 5:23:6.645	0,271	-0,152	1,000	-20,691	5,005	-4,700	-51,812	-20,325	156,302	11,400	67,658	-52,142	40,07															
03:31:43.693	COM8_115200	2000-0-0 5:27:34.230	0,750	-0,053	1,363	27,222	0,061	30,518	30,652	-41,248	3,587	-48,158	62,258	41,300	37,11															
03:31:43.709	COM3_115200	2000-0-0 5:23:6.665	0,303	-0,166	1,022	-22,827	11,169	-1,282	-51,691	-20,215	156,116	11,400	67,658	-52,142	40,36															
03:31:43.756	COM8_115200	2000-0-0 5:27:34.250	0,707	-0,041	1,377	42,114	-13,977	11,414	30,734	-41,479	4,098	-48,158	62,258	41,300	37,05															
03:31:43.756	COM8_115200	2000-0-0 5:27:34.270	0,741	0,001	1,442	39,124	-45,410	22,888	31,245	-42,127	4,048	-48,158	62,258	41,300	37,05															
03:31:43.756	COM8_115200	2000-0-0 5:27:34.290	0,765	-0,069	1,410	29,785	-49,866	28,259	31,459	-43,138	4,175	-48,158	62,258	41,300	37,01															
03:31:43.756	COM3_115200	2000-0-0 5:23:6.685	0,313	-0,085	1,043	-17,151	31,372	-14,832	-51,317	-19,990	155,495	11,400	67,658	-52,142	40,23															
03:31:43.756	COM3_115200	2000-0-0 5:23:6.705	0,314	-0,079	1,007	-21,484	36,865	-23,071	-50,922	-19,786	154,611	11,400	67,658	-52,142	40,39															
03:31:43.771	COM3_115200	2000-0-0 5:23:6.725	0,366	-0,077	1,012	-22,949	41,565	-25,452	-50,526	-19,594	153,605	11,400	67,658	-52,142	40,36															
03:31:43.787	COM8_115200	2000-0-0 5:27:34.310	0,748	-0,092	1,417	31,006	-39,795	28,809	31,608	-44,033	4,362	-48,158	62,258	41,300	37,01															
03:31:43.787	COM3_115200	2000-0-0 5:23:6.745	0,271	-0,077	1,061	-26,672	46,875	-25,757	-50,158	-19,341	152,562	11,400	67,658	-52,142	40,17															
03:31:43.802	COM8_115200	2000-0-0 5:27:34.330	0,813	-0,113	1,373	30,029	-25,269	14,465	31,674	-44,594	4,609	-48,158	62,258	41,300	37,08															
03:31:43.818	COM3_115200	2000-0-0 5:23:6.765	0,361	-0,085	1,064	-21,790	42,786	-25,635	-49,763	-19,149	151,507	11,400	67,658	-52,142	40,36															
03:31:43.834	COM8_115200	2000-0-0 5:27:34.350	0,796	-0,107	1,340	33,630	-6,897	23,987	31,712	-44,863	4,960	-48,158	62,258	41,300	37,01															
03:31:43.834	COM8_115200	2000-0-0 5:27:34.370	0,781	-0,120	1,319	25,085	-10,010	26,123	31,454	-45,181	5,630	-48,158	62,258	41,300	36,98															
03:31:43.834	COM3_115200	2000-0-0 5:23:6.785	0,263	-0,137	1,063	-28,992	23,865	6,165	-49,482	-18,847	150,710	11,400	67,658	-52,142	40,29															
03:31:43.849	COM8_115200	2000-0-0 5:27:34.390	0,749	-0,096	1,372	29,968	4,150	22,034	31,207	-45,275	6,339	-48,158	62,258	41,300	37,08															
03:31:43.865	COM3_115200	2000-0-0 5:23:6.805	0,457	0,006	1,021	-24,841	29,724	-4,456	-49,164	-18,474	150,183	11,400	67,658	-52,142	40,36															
03:31:43.865	COM3_115200	2000-0-0 5:23:6.825	0,404	-0,029	1,039	-23,376	31,555	-22,339	-48,856	-18,281	149,403	11,400	67,658	-52,142	40,29															
03:31:43.881	COM8_115200	2000-0-0 5:27:34.410	0,821	-0,125	1,294	23,743	6,348	20,142	30,822	-45,214	7,114	-48,158	62,258	41,300	36,95															
03:31:43.896	COM3_115200	2000-0-0 5:23:6.845	0,324	-0,149	1,070	-20,874	18,921	4,211	-48,658	-18,089	148,892	11,400	67,658	-52,142	40,26															
03:31:43.912	COM8_115200	2000-0-0 5:27:34.430	0,836	-0,128	1,287	22,766	1,282	11,597	30,558	-45,110	7,625	-48,158	62,258	41,300	37,08															
03:31:43.912	COM3_115200	2000-0-0 5:23:6.865	0,439	0,016	1,060	-20,752	15,747	-9,399	-48,334	-17,946	148,596	11,400	67,658	-52,142	40,39															
03:31:43.912	COM8_115200	2000-0-0 5:27:34.450	0,808	-0,123	1,299	15,930	-3,967	22,583	30,141	-45,192	8,245	-48,158	62,258	41,300	37,05															
03:31:43.927	COM3_115200	2000-0-0 5:23:6.885	0,399	-0,036	1,038	-18,738	4,822	0,671	-48,170	-17,842	148,458	11,400	67,658	-52,142	40,26															
03:31:43.927	COM8_115200	2000-0-0 5:27:34.470	0,780	-0,146	1,332	11,841	-7,080	18,372	29,680	-45,346	8,778	-48,158	62,258	41,300	37,08															
03:31:43.959	COM8_115200	2000-0-0 5:27:34.490	0,785	-0,152	1,300	6,836	-9,521	19,409	29,130	-45,516	9,283	-48,158	62,258	41,300	36,98															
03:31:43.974	COM3_115200	2000-0-0 5:23:6.905	0,441	-0,039	1,060	-21,790	0,000	-10,498	-47,961	-17,963	148,304	11,400	67,658	-52,142	40,14															
03:31:43.974	COM3_115200	2000-0-0 5:23:6.925	0,385	-0,072	1,133	-12,634	-6,165	-2,197	-47,769	-18,073	148,315	11,400	67,658	-52,142	40,36															
03:31:43.974	COM8_115200	2000-0-0 5:27:34.510	0,790	-0,177	1,308	3,174	-8,301	17,578	28,531	-45,703	9,750	-48,158	62,258	41,300	36,98															
03:31:43.990	COM3_115200	2000-0-0 5:23:6.945	0,425	-0,016	1,096	-15,503	-5,493	-7,751	-47,505	-18,248	148,343	11,400	67,658	-52,142	40,20															
03:31:44.005	COM8_115200	2000-0-0 5:27:34.530	0,758	-0,170	1,332	1,892	-6,653	17,090	27,872	-45,840	10,234	-48,158	62,258	41,300	36,98															
03:31:44.005	COM3_115200	2000-0-0 5:23:6.965	0,383	0,029	1,060	-12,390	-10,681	-4,944	-47,247	-18,452	148,414	11,400	67,658	-52,142	40,36															
03:31:44.021	COM8_115200	2000-0-0 5:27:34.550	0,663	-0,181	1,373	4,700	-13,611	18,066	27,252	-46,000	10,712	-48,158	62,258	41,300	36,92															
03:31:44.037	COM8_115200	2000-0-0 5:27:34.570	0,709	-0,191	1,368	2,625	-21,851	18,372	26,713	-46,357	11,063	-48,158	62,258	41,300	36,89															
03:31:44.037	COM3_115200	2000-0-0 5:23:6.985	0,369	-0,013	1,085	-16,602	-13,977	-7,751	-47,082	-18,754	148,535	11,400	67,658	-52,142	40,23															
03:31:44.052	COM3_115200	2000-0-0 5:23:7.005	0,372	-0,006	1,103	-16,724	-11,047	-9,277	-46,912	-19,050	148,623	11,400	67,658	-52,142	40,45															
03:31:44.052	COM8_115200	2000-0-0 5:27:34.590	0,777	-0,206	1,342	6,958	-7,751	17,273	26,153	-46,588	11,486	-48,158	62,258	41,300	37,11															
03:31:44.068	COM8_115200	2000-0-0 5:27:34.610	0,669	-0,206	1,378	9,583	-1,465	17,761	25,549	-46,593	12,085	-48,158	62,258	41,300	37,14															
03:31:44.084	COM3_115200	2000-0-0 5:23:7.025	0,367	0,021	1,122	-14,160	-6,531	-7,935	-46,675	-19,276	148,645	11,400	67,658	-52,142	40,33															
03:31:44.099	COM8_115200	2000-0-0 5:27:34.630	0,606	-0,209	1,416	10,193	-7,202	18,494	24,988	-46,648	12,656	-48,158	62,258	41,300	37,01															
03:31:44.115	COM3_115200	2000-0-0 5:23:7.045	0,386	0,040	1,112	-17,151	-5,127	-12,817	-46,439	-19,512	148,601	11,400	67,658	-52,142	40,33															
03:31:44.115	COM3_115200	2000-0-0 5:23:7.065	0,405	0,026	1,065	-19,897	-0,366	-15,625	-46,208	-19,753	148,409	11,400	67,658	-52,142	40,26															
03:31:44.130	COM8_115200	2000-0-0 5:27:34.650	0,668	-0,225	1,377	13,428	-7,751	17,761	24,510	-46,741	13,195	-48,158	62,258	41,300	37,01															
03:31:44.130	COM3_115200	2000-0-0 5:23:7.085	0,408	0,044	1,050	-18,066	2,625	-16,174	-45,967	-19,913	148,222	11,400	67,658	-52,142	40,36															
03:31:44.146	COM8_115200	2000-0-0 5:27:34.670	0,717	-0,237	1,334	16,418	-0,671	16,663	24,055	-46,736	13,782	-48,158	62,258	41,300	36,82															
03:31:44.146	COM8_115200	2000-0-0 5:27:34.690	0,714	-0,232	1,321	17,090	4,700	16,235	23,593	-46,588	14,409	-48,158	62,258	41,300	37,05															
03:31:44.162	COM3_115200	2000-0-0 5:23:7.105	0,435	0,006	1,055	-17,517	2,014	-16,785	-45,709	-20,110	147,986	11,400	67,658	-52,142	40,42															
03:31:44.177	COM3_115200	2000-0-0 5:23:7.125	0,305	0,053	1,086	-17,761	3,357	-17,273	-45,374	-20,303	147,656	11,400	67,658	-52,142	40,26															
03:31:44.177	COM8_115200	2000-0-0 5:27:34.710	0,745	-0,263	1,394	16,541	0,427	15,076	23,137	-46,489	15,018	-48,158	62,258	41,300	36,95															
03:31:44.193	COM3_115200	2000-0-0 5:23:7.145	0,509	-0,018	1,007	-16,174	8,179	-22,644	-45,082	-20,533	147,305	11,400	67,658	-52,142	40,23															
03:31:44.193	COM8_115200	2000-0-0 5:27:34.730	0,658	-0,245	1,314	16,296	-6,165	15,137	22,797	-46,511	15,458	-48,158	62,258	41,300	37,05															
03:31:44.209	COM3_115200	2000-0-0 5:23:7.165	0,385	0,062	1,001	-15,015	2,869	-13,916	-44,703	-20,654	146,986	11,400	67,658	-52,142	40,33															
03:31:44.209	COM8_115200	2000-0-0 5:27:34.750	0,679	-0,161	1,369	12,878	-9,705	13,794	22,407	-46,593	15,952	-48,158	62,258	41,300	36,92															
03:31:44.240	COM3_115200	2000-0-0 5:23:7.185	0,383	0,070	1,076	-10,681	-1,038	-10,498	-44,346	-20,825	146,810	11,400	67,658	-52,142	40,39															
03:31:44.240	COM8_115200	2000-0-0 5:27:34.770	0,813	-0,301	1,302	11,169	-9,338	13,123	22,039	-46,670	16,320	-48,158	62,258	41,300	37,14															
03:31:44.255	COM3_115200	2000-0-0 5:23:7.205	0,351	0,109	1,112	-9,094	3,479	-8,179	-43,956	-20,923	146,646	11,400	67,658	-52,142	40,39															
03:31:44.255	COM8_115200	2000-0-0 5:27:34.790	0,684	-0,249	1,336	12,207	-0,977	14,160	21,599	-46,631	16,826	-48,158	62,258	41,300	37,05															
03:31:44.271	COM3_115200	2000-0-0 5:23:7.225	0,366	0,113	1,081	-12,634	4,822	-7,324	-43,577	-20,951	146,470	11,400	67,658	-52,142	40,36															
03:31:44.287	COM3_115200	2000-0-0 5:23:7.245	0,346	0,121	1,091	-14,587	6,104	-4,639	-43,231	-20,912	146,321	11,400	67,658	-52,142	40,29															
03:31:44.287	COM8_115200	2000-0-0 5:27:34.810	0,700	-0,255	1,371	6,531	-7,080	13,123	21,132	-46,615	17,238	-48,158	62,258	41,300	36,92															
03:31:44.287	COM8_115200	2000-0-0 5:27:34.830	0,726	-0,276	1,339	6,836	0,122	11,719	20,594	-46,527	17,704	-48,158	62,258	41,300	36,98															
03:31:44.318	COM3_115200	2000-0-0 5:23:7.265	0,385	0,103	1,120	-12,817	7,446	-7,019	-42,880	-20,880	146,113	11,400	67,658	-52,142	40,23															
03:31:44.318	COM8_115200	2000-0-0 5:27:34.850	0,745	-0,252	1,356	12,573	22,827	13,245	19,984	-46,208	18,292	-48,158	62,258	41,300	37,05															
03:31:44.334	COM3_115200	2000-0-0 5:23:7.285	0,401	0,101	1,097	-11,780	7,202	-9,766	-42,495	-20,880	145,865	11,400	67,658	-52,142	40,26															
03:31:44.349	COM8_115200	2000-0-0 5:27:34.870	0,681	-0,281	1,328	6,104	11,902	10,254	19,402	-45,818	18,803	-48,158	62,258	41,300	37,01															
03:31:44.349	COM3_115200	2000-0-0 5:23:7.305	0,406	0,103	1,090	-15,381	4,089	-10,864	-42,144	-20,923	145,624	11,400	67,658	-52,142	40,42															
03:31:44.365	COM8_115200	2000-0-0 5:27:34.890	0,686	-0,294	1,369	2,075	7,446	11,475	18,754	-45,577	19,314	-48,158	62,258	41,300	37,08															
03:31:44.365	COM3_115200	2000-0-0 5:23:7.325	0,372	0,091	1,103	-10,376	7,568	-12,451	-41,715	-20,978	145,289	11,400	67,658	-52,142	40,23															
03:31:44.380	COM8_115200	2000-0-0 5:27:34.910	0,701	-0,296	1,373	4,517	10,986	7,507	18,199	-45,220	19,753	-48,158	62,258	41,300	36,98															
03:31:44.397	COM3_115200	2000-0-0 5:23:7.345	0,415	0,117	1,081	-11,047	4,944	-10,437	-41,276	-21,006	145,025	11,400	67,658	-52,142	40,33															
03:31:44.402	COM8_115200	2000-0-0 5:27:34.930	0,709	-0,291	1,362	4,211	15,686	7,751	17,644	-44,797	20,198	-48,158	62,258	41,300	37,05															
03:31:44.417	COM3_115200	2000-0-0 5:23:7.365	0,429	0,120	1,060	-14,282	4,272	-13,672	-40,930	-21,039	144,794	11,400	67,658	-52,142	40,39															
03:31:44.426	COM8_115200	2000-0-0 5:27:34.950	0,703	-0,294	1,380	5,432	14,954	6,775	17,133	-44,346	20,610	-48,158	62,258	41,300	36,92															
03:31:44.446	COM8_115200	2000-0-0 5:27:34.970	0,704	-0,291	1,379	5,676	10,986	7,568	16,655	-43,956	21,000	-48,158	62,258	41,300	37,14															
03:31:44.450	COM3_115200	2000-0-0 5:23:7.385	0,392	0,131	1,056	-14,648	2,625	-10,681	-40,583	-21,110	144,580	11,400	67,658	-52,142	40,33															
03:31:44.483	COM8_115200	2000-0-0 5:27:34.990	0,688	-0,303	1,375	7,202	7,141	7,263	16,232	-43,638	21,346	-48,158	62,258	41,300	37,01															
03:31:44.484	COM8_115200	2000-0-0 5:27:35.010	0,710	-0,304	1,386	7,263	6,226	7,080	15,837	-43,369	21,665	-48,158	62,258	41,300	37,11															
03:31:44.488	COM3_115200	2000-0-0 5:23:7.405	0,426	0,122	1,080	-11,841	2,136	-8,911	-40,254	-21,187	144,410	11,400	67,658	-52,142	40,23															
03:31:44.489	COM3_115200	2000-0-0 5:23:7.425	0,411	0,147	1,093	-12,146	3,235	-10,254	-39,886	-21,237	144,229	11,400	67,658	-52,142	40,36															
03:31:44.506	COM8_115200	2000-0-0 5:27:35.030	0,711	-0,303	1,378	7,141	9,155	6,958	15,436	-43,055	21,995	-48,158	62,258	41,300	36,98															
03:31:44.506	COM3_115200	2000-0-0 5:23:7.445	0,443	0,142	1,078	-12,268	4,883	-8,850	-39,518	-21,275	144,031	11,400	67,658	-52,142	40,36															
03:31:44.506	COM3_115200	2000-0-0 5:23:7.465	0,433	0,111	1,081	-9,033	6,165	-7,629	-39,128	-21,275	143,811	11,400	67,658	-52,142	40,23															
03:31:44.522	COM8_115200	2000-0-0 5:27:35.050	0,703	-0,296	1,377	6,531	6,104	7,446	15,051	-42,764	22,313	-48,158	62,258	41,300	36,95															
03:31:44.522	COM3_115200	2000-0-0 5:23:7.485	0,415	0,156	1,079	-6,287	1,282	-5,371	-38,677	-21,297	143,679	11,400	67,658	-52,142	40,17															
03:31:44.537	COM8_115200	2000-0-0 5:27:35.070	0,687	-0,312	1,377	6,836	0,549	7,996	14,672	-42,561	22,610	-48,158	62,258	41,300	37,01															
03:31:44.553	COM3_115200	2000-0-0 5:23:7.505	0,413	0,153	1,087	-6,897	-1,465	-5,981	-38,254	-21,374	143,597	11,400	67,658	-52,142	40,42															
03:31:44.568	COM8_115200	2000-0-0 5:27:35.090	0,687	-0,319	1,387	5,371	-3,601	9,216	14,288	-42,473	22,885	-48,158	62,258	41,300	37,05															
03:31:44.584	COM8_115200	2000-0-0 5:27:35.110	0,707	-0,335	1,397	6,653	-1,709	9,216	13,909	-42,374	23,165	-48,158	62,258	41,300	37,08															
03:31:44.600	COM8_115200	2000-0-0 5:27:35.130	0,659	-0,325	1,405	6,958	-2,563	10,925	13,513	-42,275	23,494	-48,158	62,258	41,300	36,95															
03:31:44.600	COM3_115200	2000-0-0 5:23:7.525	0,406	0,148	1,100	-5,615	2,930	-5,554	-37,809	-21,423	143,487	11,400	67,658	-52,142	40,23															
03:31:44.600	COM3_115200	2000-0-0 5:23:7.545	0,356	0,170	1,124	-5,066	1,770	-4,456	-37,343	-21,429	143,383	11,400	67,658	-52,142	40,29															
03:31:44.615	COM8_115200	2000-0-0 5:27:35.150	0,683	-0,335	1,402	5,371	-1,282	10,925	13,107	-42,193	23,813	-48,158	62,258	41,300	37,08															
03:31:44.615	COM3_115200	2000-0-0 5:23:7.565	0,338	0,201	1,172	-5,432	-0,793	-5,798	-36,887	-21,467	143,295	11,400	67,658	-52,142	40,33															
03:31:44.631	COM3_115200	2000-0-0 5:23:7.585	0,382	0,211	1,166	-10,742	3,967	-9,033	-36,469	-21,506	143,152	11,400	67,658	-52,142	40,20															
03:31:44.631	COM8_115200	2000-0-0 5:27:35.170	0,660	-0,353	1,419	7,935	6,653	11,780	12,689	-41,990	24,203	-48,158	62,258	41,300	37,01															
03:31:44.647	COM3_115200	2000-0-0 5:23:7.605	0,372	0,210	1,119	-11,719	5,310	-14,099	-36,052	-21,533	142,877	11,400	67,658	-52,142	40,23															
03:31:44.647	COM8_115200	2000-0-0 5:27:35.190	0,654	-0,327	1,418	9,094	6,531	13,611	12,277	-41,710	24,637	-48,158	62,258	41,300	36,89															
03:31:44.662	COM3_115200	2000-0-0 5:23:7.625	0,407	0,169	1,136	-14,404	4,456	-15,747	-35,711	-21,610	142,559	11,400	67,658	-52,142	40,33															
03:31:44.678	COM8_115200	2000-0-0 5:27:35.210	0,703	-0,346	1,419	9,155	7,996	14,282	11,860	-41,462	25,076	-48,158	62,258	41,300	37,11															
03:31:44.694	COM3_115200	2000-0-0 5:23:7.645	0,352	0,197	1,124	-17,273	3,967	-18,250	-35,365	-21,676	142,196	11,400	67,658	-52,142	40,20															
03:31:44.709	COM8_115200	2000-0-0 5:27:35.230	0,678	-0,343	1,411	10,254	7,019	14,343	11,453	-41,160	25,554	-48,158	62,258	41,300	37,01															
03:31:44.709	COM3_115200	2000-0-0 5:23:7.665	0,393	0,171	1,115	-17,578	0,305	-15,625	-35,085	-21,813	141,866	11,400	67,658	-52,142	40,39															
03:31:44.709	COM8_115200	2000-0-0 5:27:35.250	0,691	-0,354	1,404	9,155	4,089	16,846	11,019	-40,946	26,043	-48,158	62,258	41,300	37,08															
03:31:44.725	COM3_115200	2000-0-0 5:23:7.685	0,440	0,164	1,087	-21,240	-3,418	-1,343	-34,948	-21,852	141,839	11,400	67,658	-52,142	40,23															
03:31:44.740	COM8_115200	2000-0-0 5:27:35.270	0,682	-0,346	1,417	9,644	0,977	18,311	10,591	-40,776	26,548	-48,158	62,258	41,300	37,05															
03:31:44.756	COM3_115200	2000-0-0 5:23:7.705	0,418	0,181	1,092	-13,184	-0,610	-5,066	-34,728	-21,868	141,768	11,400	67,658	-52,142	40,29															
03:31:44.772	COM3_115200	2000-0-0 5:23:7.725	0,406	0,182	1,122	-15,503	-9,827	-6,592	-34,519	-22,011	141,751	11,400	67,658	-52,142	40,17															
03:31:44.787	COM8_115200	2000-0-0 5:27:35.290	0,705	-0,364	1,402	8,545	-4,456	18,188	10,151	-40,710	27,059	-48,158	62,258	41,300	36,95															
03:31:44.787	COM8_115200	2000-0-0 5:27:35.310	0,684	-0,380	1,394	8,423	-2,625	19,958	9,684	-40,666	27,581	-48,158	62,258	41,300	37,01															
03:31:44.803	COM3_115200	2000-0-0 5:23:7.745	0,372	0,210	1,130	-16,113	-10,193	-8,545	-34,299	-22,231	141,735	11,400	67,658	-52,142	40,33															
03:31:44.803	COM3_115200	2000-0-0 5:23:7.765	0,402	0,222	1,102	-17,029	-7,141	-10,864	-34,074	-22,451	141,652	11,400	67,658	-52,142	40,29															
03:31:44.819	COM8_115200	2000-0-0 5:27:35.330	0,618	-0,382	1,429	8,972	-12,024	21,484	9,229	-40,710	28,130	-48,158	62,258	41,300	36,98															
03:31:44.819	COM8_115200	2000-0-0 5:27:35.350	0,679	-0,399	1,439	8,606	-12,451	21,118	8,756	-40,853	28,674	-48,158	62,258	41,300	37,17															
03:31:44.850	COM3_115200	2000-0-0 5:23:7.785	0,435	0,178	1,089	-16,724	-2,502	-12,634	-33,843	-22,626	141,476	11,400	67,658	-52,142	40,33															
03:31:44.865	COM8_115200	2000-0-0 5:27:35.370	0,664	-0,401	1,420	9,827	-7,751	22,949	8,289	-40,902	29,257	-48,158	62,258	41,300	36,95															
03:31:44.881	COM8_115200	2000-0-0 5:27:35.390	0,669	-0,401	1,426	8,301	-12,451	22,766	7,817	-40,995	29,839	-48,158	62,258	41,300	37,17															
03:31:44.881	COM8_115200	2000-0-0 5:27:35.410	0,639	-0,429	1,404	9,644	-11,841	22,644	7,322	-41,083	30,432	-48,158	62,258	41,300	37,08															
03:31:44.881	COM3_115200	2000-0-0 5:23:7.805	0,385	0,214	1,107	-13,123	-1,587	-15,076	-33,508	-22,764	141,218	11,400	67,658	-52,142	40,29															
03:31:44.881	COM3_115200	2000-0-0 5:23:7.825	0,378	0,229	1,116	-12,634	-3,906	-17,029	-33,162	-22,972	140,949	11,400	67,658	-52,142	40,36															
03:31:44.897	COM3_115200	2000-0-0 5:23:7.845	0,380	0,248	1,135	-16,479	-8,423	-16,663	-32,855	-23,225	140,707	11,400	67,658	-52,142	40,29															
03:31:44.897	COM8_115200	2000-0-0 5:27:35.430	0,670	-0,437	1,371	9,033	-16,907	22,827	6,828	-41,232	31,053	-48,158	62,258	41,300	36,92															
03:31:44.912	COM3_115200	2000-0-0 5:23:7.865	0,339	0,236	1,117	-16,602	-3,479	-14,648	-32,563	-23,423	140,471	11,400	67,658	-52,142	40,26															
03:31:44.928	COM8_115200	2000-0-0 5:27:35.450	0,675	-0,397	1,409	11,536	-9,949	22,156	6,378	-41,331	31,657	-48,158	62,258	41,300	36,95															
03:31:44.928	COM3_115200	2000-0-0 5:23:7.885	0,345	0,256	1,142	-17,639	-10,559	-14,587	-32,300	-23,676	140,273	11,400	67,658	-52,142	40,26															
03:31:44.943	COM8_115200	2000-0-0 5:27:35.470	0,633	-0,436	1,395	12,085	-10,376	24,658	5,938	-41,385	32,272	-48,158	62,258	41,300	37,11															
03:31:44.959	COM3_115200	2000-0-0 5:23:7.905	0,364	0,285	1,134	-19,531	-10,437	-11,963	-32,086	-23,934	140,131	11,400	67,658	-52,142	40,36															
03:31:44.959	COM8_115200	2000-0-0 5:27:35.490	0,652	-0,447	1,398	11,841	-5,798	21,423	5,499	-41,380	32,882	-48,158	62,258	41,300	37,08															
03:31:44.975	COM3_115200	2000-0-0 5:23:7.925	0,422	0,243	1,098	-18,616	-5,859	-11,658	-31,910	-24,131	139,971	11,400	67,658	-52,142	40,45															
03:31:44.975	COM8_115200	2000-0-0 5:27:35.510	0,660	-0,447	1,395	11,108	-4,822	20,813	5,076	-41,303	33,481	-48,158	62,258	41,300	37,01															
03:31:44.990	COM3_115200	2000-0-0 5:23:7.945	0,399	0,270	1,070	-17,029	-6,531	-12,329	-31,663	-24,296	139,779	11,400	67,658	-52,142	40,29															
03:31:45.006	COM8_115200	2000-0-0 5:27:35.530	0,654	-0,465	1,376	10,925	-6,592	20,691	4,658	-41,254	34,041	-48,158	62,258	41,300	37,14															
03:31:45.006	COM3_115200	2000-0-0 5:23:7.965	0,398	0,265	1,074	-15,198	-7,751	-14,771	-31,382	-24,500	139,565	11,400	67,658	-52,142	40,36															
03:31:45.022	COM8_115200	2000-0-0 5:27:35.550	0,638	-0,479	1,380	9,338	-11,353	18,311	4,252	-41,265	34,557	-48,158	62,258	41,300	36,98															
03:31:45.037	COM3_115200	2000-0-0 5:23:7.985	0,410	0,282	1,071	-13,367	-9,216	-14,709	-31,058	-24,758	139,345	11,400	67,658	-52,142	40,20															
03:31:45.037	COM8_115200	2000-0-0 5:27:35.570	0,661	-0,480	1,377	6,287	-12,146	16,296	3,823	-41,336	35,024	-48,158	62,258	41,300	37,05															
03:31:45.053	COM3_115200	2000-0-0 5:23:8.005	0,401	0,270	1,053	-10,620	-4,822	-14,832	-30,685	-24,966	139,103	11,400	67,658	-52,142	40,39															
03:31:45.053	COM8_115200	2000-0-0 5:27:35.590	0,668	-0,491	1,385	5,493	-6,836	13,428	3,417	-41,320	35,414	-48,158	62,258	41,300	36,92															
03:31:45.068	COM3_115200	2000-0-0 5:23:8.025	0,388	0,293	1,056	-7,507	-1,831	-13,367	-30,223	-25,076	138,823	11,400	67,658	-52,142	40,33															
03:31:45.068	COM8_115200	2000-0-0 5:27:35.610	0,643	-0,486	1,385	3,418	-8,118	10,498	3,027	-41,265	35,739	-48,158	62,258	41,300	37,11															
03:31:45.084	COM3_115200	2000-0-0 5:23:8.045	0,396	0,296	1,061	-3,906	-1,221	-12,756	-29,707	-25,175	138,549	11,400	67,658	-52,142	40,29															
03:31:45.100	COM8_115200	2000-0-0 5:27:35.630	0,659	-0,491	1,375	0,793	-8,179	7,446	2,631	-41,248	35,980	-48,158	62,258	41,300	37,08															
03:31:45.115	COM3_115200	2000-0-0 5:23:8.065	0,396	0,296	1,077	-0,488	0,610	-11,719	-29,119	-25,236	138,274	11,400	67,658	-52,142	40,29															
03:31:45.131	COM8_115200	2000-0-0 5:27:35.650	0,663	-0,496	1,356	-0,793	-3,540	3,357	2,269	-41,166	36,129	-48,158	62,258	41,300	37,11															
03:31:45.131	COM3_115200	2000-0-0 5:23:8.085	0,405	0,291	1,089	3,967	4,150	-9,277	-28,466	-25,230	138,010	11,400	67,658	-52,142	40,36															
03:31:45.131	COM8_115200	2000-0-0 5:27:35.670	0,660	-0,499	1,333	-2,747	1,099	-1,160	1,928	-40,974	36,172	-48,158	62,258	41,300	36,98															
03:31:45.147	COM3_115200	2000-0-0 5:23:8.105	0,416	0,303	1,064	7,568	7,324	-6,775	-27,735	-25,142	137,758	11,400	67,658	-52,142	40,23															
03:31:45.162	COM8_115200	2000-0-0 5:27:35.690	0,644	-0,493	1,349	-3,540	0,732	-5,432	1,664	-40,748	36,096	-48,158	62,258	41,300	37,01															
03:31:45.178	COM8_115200	2000-0-0 5:27:35.710	0,699	-0,503	1,305	-4,211	7,324	-12,634	1,461	-40,463	35,870	-48,158	62,258	41,300	37,08															
03:31:45.178	COM3_115200	2000-0-0 5:23:8.125	0,425	0,276	1,039	9,583	10,437	-4,333	-26,966	-24,972	137,543	11,400	67,658	-52,142	40,39															
03:31:45.240	COM8_115200	2000-0-0 5:27:35.730	0,668	-0,492	1,312	-5,798	3,174	-17,639	1,340	-40,204	35,486	-48,158	62,258	41,300	36,98															
03:31:45.240	COM8_115200	2000-0-0 5:27:35.750	0,735	-0,471	1,333	-11,414	-2,258	-24,536	1,258	-40,023	34,964	-48,158	62,258	41,300	37,08															
03:31:45.240	COM8_115200	2000-0-0 5:27:35.770	0,743	-0,488	1,311	-12,756	-0,427	-27,222	1,176	-39,869	34,310	-48,158	62,258	41,300	37,01															
03:31:45.240	COM3_115200	2000-0-0 5:23:8.145	0,443	0,279	1,002	13,611	7,019	-2,930	-26,131	-24,802	137,362	11,400	67,658	-52,142	40,45															
03:31:45.256	COM3_115200	2000-0-0 5:23:8.165	0,420	0,278	0,967	22,217	9,277	0,732	-25,219	-24,593	137,236	11,400	67,658	-52,142	40,29															
03:31:45.256	COM8_115200	2000-0-0 5:27:35.790	0,753	-0,454	1,312	-18,799	-1,892	-33,936	1,115	-39,721	33,497	-48,158	62,258	41,300	37,08															
03:31:45.256	COM3_115200	2000-0-0 5:23:8.185	0,446	0,265	0,999	23,804	5,859	5,432	-24,307	-24,401	137,252	11,400	67,658	-52,142	40,20															
03:31:45.271	COM3_115200	2000-0-0 5:23:8.205	0,452	0,257	1,021	30,090	7,385	10,010	-23,335	-24,175	137,351	11,400	67,658	-52,142	40,39															
03:31:45.271	COM3_115200	2000-0-0 5:23:8.225	0,455	0,251	1,035	35,156	8,423	13,672	-22,297	-23,912	137,521	11,400	67,658	-52,142	40,36															
03:31:45.271	COM8_115200	2000-0-0 5:27:35.810	0,750	-0,438	1,330	-22,034	4,639	-39,490	1,049	-39,518	32,552	-48,158	62,258	41,300	37,05															
03:31:45.287	COM3_115200	2000-0-0 5:23:8.245	0,408	0,258	1,052	40,527	9,094	18,799	-21,198	-23,604	137,796	11,400	67,658	-52,142	40,39															
03:31:45.287	COM8_115200	2000-0-0 5:27:35.830	0,694	-0,427	1,348	-21,912	9,460	-43,152	1,044	-39,188	31,487	-48,158	62,258	41,300	36,98															
03:31:45.303	COM3_115200	2000-0-0 5:23:8.265	0,403	0,258	1,085	42,480	15,015	18,005	-20,050	-23,220	138,082	11,400	67,658	-52,142	40,29															
03:31:45.318	COM8_115200	2000-0-0 5:27:35.850	0,668	-0,415	1,374	-21,729	14,526	-46,326	1,071	-38,776	30,350	-48,158	62,258	41,300	37,01															
03:31:45.334	COM3_115200	2000-0-0 5:23:8.285	0,427	0,232	1,095	46,570	26,733	20,996	-18,864	-22,643	138,340	11,400	67,658	-52,142	40,23															
03:31:45.334	COM8_115200	2000-0-0 5:27:35.870	0,665	-0,412	1,386	-19,287	27,283	-49,988	1,181	-38,167	29,136	-48,158	62,258	41,300	37,14															
03:31:45.350	COM8_115200	2000-0-0 5:27:35.890	0,684	-0,390	1,406	-18,677	39,978	-52,124	1,329	-37,293	27,872	-48,158	62,258	41,300	36,98															
03:31:45.350	COM3_115200	2000-0-0 5:23:8.305	0,428	0,226	1,092	46,021	33,569	21,790	-17,639	-21,901	138,587	11,400	67,658	-52,142	40,33															
03:31:45.365	COM3_115200	2000-0-0 5:23:8.325	0,409	0,185	1,074	45,410	40,649	24,109	-16,463	-21,017	138,840	11,400	67,658	-52,142	40,29															
03:31:45.365	COM8_115200	2000-0-0 5:27:35.910	0,656	-0,321	1,429	-16,541	38,208	-51,025	1,522	-36,326	26,603	-48,158	62,258	41,300	37,05															
03:31:45.381	COM3_115200	2000-0-0 5:23:8.345	0,405	0,182	1,119	39,734	33,691	24,658	-15,386	-20,171	139,164	11,400	67,658	-52,142	40,33															
03:31:45.397	COM8_115200	2000-0-0 5:27:35.930	0,656	-0,316	1,433	-15,259	31,433	-49,133	1,675	-35,524	25,417	-48,158	62,258	41,300	37,17															
03:31:45.412	COM3_115200	2000-0-0 5:23:8.365	0,463	0,147	1,132	38,818	36,804	23,193	-14,392	-19,385	139,488	11,400	67,658	-52,142	40,23															
03:31:45.428	COM8_115200	2000-0-0 5:27:35.950	0,693	-0,327	1,409	-11,780	31,494	-48,340	1,873	-34,739	24,247	-48,158	62,258	41,300	36,98															
03:31:45.441	COM8_115200	2000-0-0 5:27:35.970	0,735	-0,281	1,424	-14,160	29,907	-45,105	2,010	-34,014	23,154	-48,158	62,258	41,300	36,95															
03:31:45.442	COM3_115200	2000-0-0 5:23:8.385	0,412	0,162	1,100	36,499	36,804	23,254	-13,425	-18,545	139,785	11,400	67,658	-52,142	40,36															
03:31:45.455	COM3_115200	2000-0-0 5:23:8.405	0,427	0,124	1,107	33,264	25,757	25,024	-12,579	-17,886	140,175	11,400	67,658	-52,142	40,42															
03:31:45.462	COM8_115200	2000-0-0 5:27:35.990	0,750	-0,268	1,393	-14,038	28,687	-43,396	2,098	-33,278	22,121	-48,158	62,258	41,300	36,98															
03:31:45.474	COM3_115200	2000-0-0 5:23:8.425	0,436	0,138	1,142	29,297	13,977	27,283	-11,838	-17,441	140,691	11,400	67,658	-52,142	40,29															
03:31:45.488	COM8_115200	2000-0-0 5:27:36.010	0,734	-0,274	1,423	-20,081	7,813	-36,987	2,082	-32,844	21,176	-48,158	62,258	41,300	37,05															
03:31:45.497	COM3_115200	2000-0-0 5:23:8.445	0,478	0,099	1,114	28,076	9,827	26,550	-11,190	-17,172	141,229	11,400	67,658	-52,142	40,26															
03:31:45.501	COM8_115200	2000-0-0 5:27:36.030	0,745	-0,217	1,405	-19,958	7,080	-36,194	1,939	-32,635	20,286	-48,158	62,258	41,300	37,05															
03:31:45.507	COM3_115200	2000-0-0 5:23:8.465	0,405	0,129	1,100	26,672	-0,610	28,259	-10,569	-17,023	141,833	11,400	67,658	-52,142	40,20															
03:31:45.522	COM8_115200	2000-0-0 5:27:36.050	0,779	-0,250	1,397	-28,442	-0,549	-34,607	1,714	-32,498	19,407	-48,158	62,258	41,300	37,01															
03:31:45.522	COM3_115200	2000-0-0 5:23:8.485	0,480	0,074	1,111	27,405	-4,761	28,015	-9,992	-17,056	142,465	11,400	67,658	-52,142	40,23															
03:31:45.538	COM8_115200	2000-0-0 5:27:36.070	0,789	-0,263	1,406	-31,250	2,075	-34,363	1,357	-32,399	18,616	-48,158	62,258	41,300	37,01															
03:31:45.554	COM3_115200	2000-0-0 5:23:8.505	0,450	0,060	1,111	31,128	-0,305	29,724	-9,382	-17,040	143,119	11,400	67,658	-52,142	40,29															
03:31:45.554	COM8_115200	2000-0-0 5:27:36.090	0,741	-0,225	1,415	-35,400	-4,456	-31,860	0,945	-32,349	17,831	-48,158	62,258	41,300	36,98															
03:31:45.585	COM8_115200	2000-0-0 5:27:36.110	0,748	-0,226	1,444	-40,222	-11,108	-30,518	0,417	-32,481	17,084	-48,158	62,258	41,300	36,98															
03:31:45.585	COM3_115200	2000-0-0 5:23:8.525	0,401	0,118	1,146	33,264	1,465	16,846	-8,685	-16,996	143,679	11,400	67,658	-52,142	40,26															
03:31:45.585	COM3_115200	2000-0-0 5:23:8.545	0,461	0,031	1,127	33,691	7,507	23,682	-8,031	-16,875	144,141	11,400	67,658	-52,142	40,33															
03:31:45.616	COM8_115200	2000-0-0 5:27:36.130	0,757	-0,206	1,422	-41,687	-0,488	-29,175	-0,154	-32,520	16,375	-48,158	62,258	41,300	36,95															
03:31:45.616	COM3_115200	2000-0-0 5:23:8.565	0,472	0,081	1,086	28,564	17,151	17,761	-7,322	-16,611	144,553	11,400	67,658	-52,142	40,23															
03:31:45.616	COM8_115200	2000-0-0 5:27:36.150	0,739	-0,207	1,405	-40,283	4,883	-28,015	-0,731	-32,388	15,694	-48,158	62,258	41,300	37,01															
03:31:45.632	COM3_115200	2000-0-0 5:23:8.585	0,432	0,019	1,150	23,376	10,864	20,996	-6,757	-16,375	144,998	11,400	67,658	-52,142	40,29															
03:31:45.647	COM8_115200	2000-0-0 5:27:36.170	0,715	-0,182	1,402	-35,461	6,714	-28,015	-1,225	-32,212	15,029	-48,158	62,258	41,300	36,98															
03:31:45.647	COM3_115200	2000-0-0 5:23:8.605	0,497	0,008	1,185	27,222	6,409	19,653	-6,235	-16,260	145,492	11,400	67,658	-52,142	40,33															
03:31:45.647	COM8_115200	2000-0-0 5:27:36.190	0,685	-0,162	1,379	-28,992	6,775	-27,527	-1,593	-32,020	14,354	-48,158	62,258	41,300	37,05															
03:31:45.663	COM3_115200	2000-0-0 5:23:8.625	0,521	-0,028	1,175	20,752	13,245	17,700	-5,740	-16,084	145,854	11,400	67,658	-52,142	40,23															
03:31:45.679	COM8_115200	2000-0-0 5:27:36.210	0,705	-0,155	1,379	-26,428	5,798	-28,748	-1,873	-31,866	13,689	-48,158	62,258	41,300	36,95															
03:31:45.694	COM3_115200	2000-0-0 5:23:8.645	0,508	-0,010	1,124	28,931	14,038	21,240	-5,208	-15,859	146,310	11,400	67,658	-52,142	40,39															
03:31:45.694	COM8_115200	2000-0-0 5:27:36.230	0,779	-0,137	1,389	-23,071	9,766	-30,090	-2,065	-31,663	12,969	-48,158	62,258	41,300	36,98															
03:31:45.710	COM3_115200	2000-0-0 5:23:8.665	0,503	0,013	1,096	21,362	19,653	11,719	-4,680	-15,584	146,662	11,400	67,658	-52,142	40,29															
03:31:45.710	COM8_115200	2000-0-0 5:27:36.250	0,770	-0,110	1,408	-17,517	12,268	-28,137	-2,175	-31,393	12,277	-48,158	62,258	41,300	36,98															
03:31:45.726	COM3_115200	2000-0-0 5:23:8.685	0,431	-0,069	1,154	22,217	-1,282	22,522	-4,301	-15,518	147,107	11,400	67,658	-52,142	40,36															
03:31:45.741	COM8_115200	2000-0-0 5:27:36.270	0,754	-0,087	1,429	-18,372	7,813	-28,320	-2,236	-31,179	11,591	-48,158	62,258	41,300	37,17															
03:31:45.741	COM3_115200	2000-0-0 5:23:8.705	0,540	-0,064	1,161	21,729	9,094	12,085	-3,895	-15,529	147,475	11,400	67,658	-52,142	40,33															
03:31:45.757	COM8_115200	2000-0-0 5:27:36.290	0,794	-0,072	1,386	-17,090	5,981	-28,564	-2,296	-31,014	10,915	-48,158	62,258	41,300	37,08															
03:31:45.772	COM8_115200	2000-0-0 5:27:36.310	0,795	-0,072	1,402	-17,639	2,991	-26,489	-2,362	-30,943	10,261	-48,158	62,258	41,300	37,05															
03:31:45.788	COM3_115200	2000-0-0 5:23:8.725	0,483	-0,070	1,120	26,855	6,714	18,677	-3,444	-15,430	147,870	11,400	67,658	-52,142	40,45															
03:31:45.788	COM8_115200	2000-0-0 5:27:36.330	0,791	-0,058	1,402	-18,188	3,235	-28,076	-2,433	-30,872	9,619	-48,158	62,258	41,300	36,98															
03:31:45.804	COM3_115200	2000-0-0 5:23:8.745	0,527	-0,067	1,105	26,001	-1,038	17,822	-2,972	-15,463	148,250	11,400	67,658	-52,142	40,29															
03:31:45.804	COM3_115200	2000-0-0 5:23:8.765	0,505	-0,108	1,121	21,667	0,671	11,841	-2,565	-15,524	148,568	11,400	67,658	-52,142	40,36															
03:31:45.835	COM8_115200	2000-0-0 5:27:36.350	0,798	-0,031	1,425	-19,348	-1,038	-27,527	-2,499	-30,844	8,959	-48,158	62,258	41,300	37,05															
03:31:45.835	COM8_115200	2000-0-0 5:27:36.370	0,818	-0,021	1,424	-21,057	-5,066	-27,954	-2,598	-30,927	8,311	-48,158	62,258	41,300	36,98															
03:31:45.835	COM3_115200	2000-0-0 5:23:8.785	0,478	-0,148	1,179	20,203	-2,502	16,357	-2,241	-15,667	148,958	11,400	67,658	-52,142	40,26															
03:31:45.850	COM8_115200	2000-0-0 5:27:36.390	0,802	-0,021	1,402	-21,362	-6,592	-28,503	-2,692	-31,042	7,641	-48,158	62,258	41,300	37,08															
03:31:45.866	COM3_115200	2000-0-0 5:23:8.805	0,497	-0,136	1,169	25,024	1,770	11,108	-1,851	-15,727	149,194	11,400	67,658	-52,142	40,39															
03:31:45.866	COM3_115200	2000-0-0 5:23:8.825	0,475	-0,104	1,132	24,353	-0,671	13,184	-1,472	-15,776	149,491	11,400	67,658	-52,142	40,26															
03:31:45.882	COM8_115200	2000-0-0 5:27:36.410	0,762	-0,018	1,399	-21,729	-4,517	-28,259	-2,791	-31,157	6,976	-48,158	62,258	41,300	37,01															
03:31:45.897	COM3_115200	2000-0-0 5:23:8.845	0,496	-0,111	1,154	19,897	-6,531	15,991	-1,148	-15,941	149,804	11,400	67,658	-52,142	40,26															
03:31:45.897	COM8_115200	2000-0-0 5:27:36.430	0,756	-0,002	1,407	-23,621	-3,052	-28,381	-2,906	-31,229	6,312	-48,158	62,258	41,300	37,05															
03:31:45.913	COM3_115200	2000-0-0 5:23:8.865	0,418	-0,123	1,222	18,738	-4,822	14,404	-0,868	-16,128	150,139	11,400	67,658	-52,142	40,36															
03:31:45.928	COM8_115200	2000-0-0 5:27:36.450	0,791	0,017	1,443	-25,452	-9,155	-27,344	-3,054	-31,377	5,663	-48,158	62,258	41,300	36,98															
03:31:45.944	COM8_115200	2000-0-0 5:27:36.470	0,775	0,016	1,455	-23,071	-0,854	-25,696	-3,197	-31,470	5,043	-48,158	62,258	41,300	37,05															
03:31:45.960	COM8_115200	2000-0-0 5:27:36.490	0,742	0,028	1,396	-22,278	10,681	-24,963	-3,301	-31,322	4,438	-48,158	62,258	41,300	37,01															
03:31:45.960	COM3_115200	2000-0-0 5:23:8.885	0,413	-0,099	1,239	22,339	-3,113	12,024	-0,560	-16,282	150,469	11,400	67,658	-52,142	40,26															
03:31:45.960	COM3_115200	2000-0-0 5:23:8.905	0,470	-0,104	1,197	21,362	0,000	12,451	-0,247	-16,370	150,738	11,400	67,658	-52,142	40,33															
03:31:45.975	COM8_115200	2000-0-0 5:27:36.510	0,722	0,026	1,360	-22,217	10,132	-21,729	-3,417	-31,097	3,878	-48,158	62,258	41,300	37,05															
03:31:45.975	COM3_115200	2000-0-0 5:23:8.925	0,515	-0,130	1,134	21,240	-0,549	12,512	0,027	-16,425	151,046	11,400	67,658	-52,142	40,36															
03:31:45.991	COM3_115200	2000-0-0 5:23:8.945	0,438	-0,125	1,207	19,409	-0,549	13,000	0,313	-16,507	151,337	11,400	67,658	-52,142	40,29															
03:31:45.991	COM8_115200	2000-0-0 5:27:36.530	0,728	0,043	1,429	-20,386	8,118	-21,912	-3,538	-30,916	3,345	-48,158	62,258	41,300	37,11															
03:31:46.007	COM3_115200	2000-0-0 5:23:8.965	0,454	-0,162	1,239	18,005	-0,244	8,118	0,549	-16,573	151,573	11,400	67,658	-52,142	40,36															
03:31:46.022	COM8_115200	2000-0-0 5:27:36.550	0,718	0,037	1,456	-18,372	13,916	-20,325	-3,609	-30,685	2,834	-48,158	62,258	41,300	37,01															
03:31:46.038	COM3_115200	2000-0-0 5:23:8.985	0,496	-0,169	1,187	20,630	3,723	7,019	0,824	-16,606	151,765	11,400	67,658	-52,142	40,26															
03:31:46.038	COM8_115200	2000-0-0 5:27:36.570	0,789	0,049	1,401	-17,273	19,287	-19,836	-3,664	-30,328	2,340	-48,158	62,258	41,300	36,98															
03:31:46.054	COM3_115200	2000-0-0 5:23:9.005	0,480	-0,182	1,133	19,714	5,432	9,216	1,099	-16,562	151,968	11,400	67,658	-52,142	40,39															
03:31:46.054	COM8_115200	2000-0-0 5:27:36.590	0,770	0,104	1,433	-14,832	19,348	-17,334	-3,702	-29,932	1,873	-48,158	62,258	41,300	37,08															
03:31:46.069	COM3_115200	2000-0-0 5:23:9.025	0,495	-0,189	1,152	16,602	3,418	6,348	1,335	-16,551	152,133	11,400	67,658	-52,142	40,36															
03:31:46.085	COM8_115200	2000-0-0 5:27:36.610	0,771	0,112	1,439	-12,268	10,132	-17,090	-3,702	-29,636	1,461	-48,158	62,258	41,300	37,01															
03:31:46.085	COM3_115200	2000-0-0 5:23:9.045	0,479	-0,237	1,163	12,939	1,648	3,113	1,472	-16,584	152,276	11,400	67,658	-52,142	40,33															
03:31:46.100	COM8_115200	2000-0-0 5:27:36.630	0,777	0,115	1,447	-10,437	1,099	-15,747	-3,669	-29,564	1,066	-48,158	62,258	41,300	36,98															
03:31:46.116	COM3_115200	2000-0-0 5:23:9.065	0,518	-0,235	1,123	14,343	-3,845	5,493	1,609	-16,694	152,386	11,400	67,658	-52,142	40,23															
03:31:46.116	COM8_115200	2000-0-0 5:27:36.650	0,799	0,107	1,412	-9,033	-0,732	-15,320	-3,615	-29,581	0,709	-48,158	62,258	41,300	36,98															
03:31:46.132	COM8_115200	2000-0-0 5:27:36.670	0,817	0,136	1,412	-8,179	-2,441	-16,113	-3,532	-29,625	0,341	-48,158	62,258	41,300	36,98															
03:31:46.147	COM3_115200	2000-0-0 5:23:9.085	0,506	-0,204	1,133	11,353	-3,174	0,549	1,736	-16,842	152,452	11,400	67,658	-52,142	40,39															
03:31:46.147	COM3_115200	2000-0-0 5:23:9.105	0,497	-0,235	1,140	13,062	-6,836	1,770	1,813	-17,012	152,501	11,400	67,658	-52,142	40,20															
03:31:46.163	COM8_115200	2000-0-0 5:27:36.690	0,759	0,128	1,455	-6,897	-2,563	-15,137	-3,428	-29,685	-0,011	-48,158	62,258	41,300	37,11															
03:31:46.178	COM3_115200	2000-0-0 5:23:9.125	0,477	-0,212	1,157	12,634	-8,789	3,967	1,934	-17,249	152,578	11,400	67,658	-52,142	40,23															
03:31:46.178	COM8_115200	2000-0-0 5:27:36.710	0,742	0,109	1,439	-8,118	-9,033	-14,893	-3,329	-29,828	-0,352	-48,158	62,258	41,300	37,05															
03:31:46.194	COM3_115200	2000-0-0 5:23:9.145	0,453	-0,222	1,152	14,771	-8,667	3,845	2,038	-17,507	152,693	11,400	67,658	-52,142	40,23															
03:31:46.194	COM8_115200	2000-0-0 5:27:36.730	0,857	0,141	1,402	-11,108	-18,982	-16,296	-3,268	-30,135	-0,698	-48,158	62,258	41,300	37,05															
03:31:46.210	COM3_115200	2000-0-0 5:23:9.165	0,437	-0,210	1,138	16,052	-8,362	1,953	2,186	-17,710	152,765	11,400	67,658	-52,142	40,33															
03:31:46.210	COM8_115200	2000-0-0 5:27:36.750	0,765	0,134	1,452	-9,827	-12,390	-14,526	-3,224	-30,449	-1,033	-48,158	62,258	41,300	37,01															
03:31:46.225	COM3_115200	2000-0-0 5:23:9.185	0,457	-0,186	1,185	14,893	-10,254	3,296	2,340	-17,957	152,825	11,400	67,658	-52,142	40,33															
03:31:46.241	COM8_115200	2000-0-0 5:27:36.770	0,767	0,120	1,424	-12,817	-9,521	-15,320	-3,181	-30,641	-1,373	-48,158	62,258	41,300	36,86															
03:31:46.256	COM3_115200	2000-0-0 5:23:9.205	0,448	-0,208	1,203	12,939	-8,850	5,127	2,433	-18,204	152,952	11,400	67,658	-52,142	40,39															
03:31:46.256	COM8_115200	2000-0-0 5:27:36.790	0,802	0,152	1,402	-14,709	-7,324	-14,465	-3,192	-30,806	-1,714	-48,158	62,258	41,300	36,92															
03:31:46.272	COM3_115200	2000-0-0 5:23:9.225	0,475	-0,235	1,149	14,465	-5,981	4,089	2,521	-18,386	153,067	11,400	67,658	-52,142	40,42															
03:31:46.288	COM8_115200	2000-0-0 5:27:36.810	0,775	0,165	1,384	-16,052	-3,357	-13,977	-3,224	-30,850	-2,049	-48,158	62,258	41,300	36,98															
03:31:46.288	COM3_115200	2000-0-0 5:23:9.245	0,480	-0,208	1,140	16,174	-4,944	5,432	2,686	-18,550	153,171	11,400	67,658	-52,142	40,45															
03:31:46.319	COM3_115200	2000-0-0 5:23:9.265	0,446	-0,227	1,200	14,221	-2,991	5,981	2,785	-18,655	153,353	11,400	67,658	-52,142	40,36															
03:31:46.319	COM8_115200	2000-0-0 5:27:36.830	0,756	0,160	1,416	-17,578	1,160	-14,343	-3,307	-30,877	-2,384	-48,158	62,258	41,300	36,92															
03:31:46.319	COM8_115200	2000-0-0 5:27:36.850	0,812	0,167	1,414	-18,066	7,507	-15,259	-3,367	-30,756	-2,747	-48,158	62,258	41,300	37,05															
03:31:46.350	COM8_115200	2000-0-0 5:27:36.870	0,823	0,217	1,440	-18,494	5,981	-15,259	-3,450	-30,624	-3,120	-48,158	62,258	41,300	36,98															
03:31:46.366	COM8_115200	2000-0-0 5:27:36.890	0,777	0,218	1,422	-15,259	7,263	-16,174	-3,477	-30,487	-3,499	-48,158	62,258	41,300	36,98															
03:31:46.366	COM8_115200	2000-0-0 5:27:36.910	0,766	0,223	1,401	-15,320	1,587	-17,212	-3,450	-30,410	-3,906	-48,158	62,258	41,300	36,95															
03:31:46.381	COM3_115200	2000-0-0 5:23:9.285	0,458	-0,264	1,183	14,099	0,671	6,653	2,873	-18,704	153,501	11,400	67,658	-52,142	40,11															
03:31:46.397	COM8_115200	2000-0-0 5:27:36.930	0,752	0,201	1,430	-14,343	0,488	-16,174	-3,422	-30,405	-4,296	-48,158	62,258	41,300	36,95															
03:31:46.397	COM3_115200	2000-0-0 5:23:9.305	0,476	-0,281	1,131	15,564	2,808	7,751	2,966	-18,710	153,688	11,400	67,658	-52,142	40,20															
03:31:46.397	COM3_115200	2000-0-0 5:23:9.325	0,472	-0,288	1,156	16,113	3,845	10,437	3,049	-18,688	153,907	11,400	67,658	-52,142	40,26															
03:31:46.397	COM3_115200	2000-0-0 5:23:9.345	0,465	-0,289	1,174	15,808	5,615	11,780	3,109	-18,627	154,182	11,400	67,658	-52,142	40,14															
03:31:46.397	COM3_115200	2000-0-0 5:23:9.365	0,498	-0,289	1,161	15,198	9,155	11,414	3,170	-18,539	154,451	11,400	67,658	-52,142	40,42															
03:31:46.413	COM8_115200	2000-0-0 5:27:36.950	0,747	0,174	1,462	-12,024	7,080	-16,357	-3,356	-30,317	-4,686	-48,158	62,258	41,300	37,01															
03:31:46.428	COM3_115200	2000-0-0 5:23:9.385	0,444	-0,308	1,188	14,587	12,451	10,376	3,203	-18,375	154,720	11,400	67,658	-52,142	40,33															
03:31:46.428	COM8_115200	2000-0-0 5:27:36.970	0,789	0,211	1,464	-10,559	10,437	-16,785	-3,246	-30,114	-5,087	-48,158	62,258	41,300	37,08															
03:31:46.444	COM3_115200	2000-0-0 5:23:9.405	0,445	-0,306	1,186	13,489	14,954	11,047	3,219	-18,127	154,979	11,400	67,658	-52,142	40,29															
03:31:46.460	COM8_115200	2000-0-0 5:27:36.990	0,721	0,220	1,477	-7,690	8,789	-15,869	-3,093	-29,921	-5,477	-48,158	62,258	41,300	37,05															
03:31:46.460	COM3_115200	2000-0-0 5:23:9.425	0,489	-0,290	1,194	13,855	18,677	8,850	3,252	-17,831	155,215	11,400	67,658	-52,142	40,29															
03:31:46.475	COM8_115200	2000-0-0 5:27:37.010	0,760	0,204	1,450	-8,423	6,897	-16,296	-2,933	-29,762	-5,861	-48,158	62,258	41,300	36,82															
03:31:46.499	COM3_115200	2000-0-0 5:23:9.445	0,468	-0,291	1,205	12,756	20,813	8,179	3,263	-17,490	155,435	11,400	67,658	-52,142	40,36															
03:31:46.503	COM8_115200	2000-0-0 5:27:37.030	0,771	0,234	1,455	-7,141	12,695	-14,526	-2,780	-29,548	-6,229	-48,158	62,258	41,300	37,14															
03:31:46.531	COM8_115200	2000-0-0 5:27:37.050	0,744	0,244	1,445	-8,850	14,526	-13,062	-2,648	-29,262	-6,559	-48,158	62,258	41,300	37,01															
03:31:46.535	COM3_115200	2000-0-0 5:23:9.465	0,480	-0,321	1,215	11,353	16,235	6,409	3,235	-17,172	155,632	11,400	67,658	-52,142	40,20															
03:31:46.536	COM3_115200	2000-0-0 5:23:9.485	0,494	-0,312	1,232	13,794	17,273	5,249	3,263	-16,908	155,775	11,400	67,658	-52,142	40,26															
03:31:46.539	COM8_115200	2000-0-0 5:27:37.070	0,794	0,269	1,434	-9,949	11,475	-13,428	-2,560	-29,004	-6,872	-48,158	62,258	41,300	37,05															
03:31:46.539	COM3_115200	2000-0-0 5:23:9.505	0,459	-0,294	1,233	12,512	12,390	5,432	3,290	-16,683	155,918	11,400	67,658	-52,142	40,36															
03:31:46.555	COM8_115200	2000-0-0 5:27:37.090	0,791	0,292	1,453	-10,437	9,460	-13,123	-2,483	-28,795	-7,185	-48,158	62,258	41,300	37,08															
03:31:46.570	COM3_115200	2000-0-0 5:23:9.525	0,483	-0,313	1,205	8,423	1,404	6,592	3,241	-16,628	156,061	11,400	67,658	-52,142	40,36															
03:31:46.586	COM8_115200	2000-0-0 5:27:37.110	0,760	0,283	1,451	-10,315	8,484	-12,634	-2,406	-28,619	-7,482	-48,158	62,258	41,300	37,08															
03:31:46.586	COM3_115200	2000-0-0 5:23:9.545	0,488	-0,326	1,224	10,376	-1,831	5,188	3,197	-16,721	156,187	11,400	67,658	-52,142	40,33															
03:31:46.586	COM8_115200	2000-0-0 5:27:37.130	0,796	0,290	1,428	-11,414	2,808	-12,573	-2,346	-28,515	-7,773	-48,158	62,258	41,300	36,95															
03:31:46.602	COM3_115200	2000-0-0 5:23:9.565	0,479	-0,330	1,246	9,583	-5,005	6,042	3,153	-16,848	156,319	11,400	67,658	-52,142	40,17															
03:31:46.617	COM8_115200	2000-0-0 5:27:37.150	0,805	0,294	1,414	-9,094	0,488	-12,207	-2,269	-28,499	-8,047	-48,158	62,258	41,300	36,95															
03:31:46.633	COM3_115200	2000-0-0 5:23:9.585	0,481	-0,324	1,243	8,789	-5,554	4,578	3,115	-17,001	156,423	11,400	67,658	-52,142	40,36															
03:31:46.633	COM8_115200	2000-0-0 5:27:37.170	0,790	0,331	1,460	-9,460	-3,906	-13,123	-2,164	-28,548	-8,339	-48,158	62,258	41,300	37,01															
03:31:46.649	COM8_115200	2000-0-0 5:27:37.190	0,732	0,288	1,494	-7,385	-4,517	-11,292	-2,049	-28,647	-8,602	-48,158	62,258	41,300	36,95															
03:31:46.680	COM8_115200	2000-0-0 5:27:37.210	0,763	0,273	1,441	-7,996	-5,432	-10,925	-1,928	-28,751	-8,855	-48,158	62,258	41,300	37,01															
03:31:46.695	COM3_115200	2000-0-0 5:23:9.605	0,510	-0,355	1,204	7,019	-10,620	5,493	3,027	-17,227	156,533	11,400	67,658	-52,142	40,29															
03:31:46.695	COM3_115200	2000-0-0 5:23:9.625	0,483	-0,341	1,228	8,667	-13,062	6,714	2,950	-17,523	156,654	11,400	67,658	-52,142	40,33															
03:31:46.695	COM3_115200	2000-0-0 5:23:9.645	0,445	-0,325	1,290	6,714	-9,521	5,371	2,862	-17,809	156,786	11,400	67,658	-52,142	40,26															
03:31:46.711	COM8_115200	2000-0-0 5:27:37.230	0,776	0,311	1,446	-3,723	2,319	-9,949	-1,774	-28,762	-9,086	-48,158	62,258	41,300	36,95															
03:31:46.711	COM8_115200	2000-0-0 5:27:37.250	0,758	0,287	1,461	-7,080	-6,104	-10,437	-1,620	-28,812	-9,316	-48,158	62,258	41,300	36,98															
03:31:46.711	COM3_115200	2000-0-0 5:23:9.665	0,475	-0,359	1,189	5,981	-10,742	4,272	2,725	-18,018	156,901	11,400	67,658	-52,142	40,29															
03:31:46.727	COM3_115200	2000-0-0 5:23:9.685	0,519	-0,371	1,171	5,615	-10,254	3,235	2,620	-18,281	156,967	11,400	67,658	-52,142	40,33															
03:31:46.727	COM8_115200	2000-0-0 5:27:37.270	0,753	0,307	1,464	-3,967	-3,235	-11,108	-1,439	-28,872	-9,558	-48,158	62,258	41,300	37,01															
03:31:46.742	COM3_115200	2000-0-0 5:23:9.705	0,485	-0,375	1,184	7,874	-8,362	2,136	2,527	-18,495	157,028	11,400	67,658	-52,142	40,36															
03:31:46.758	COM8_115200	2000-0-0 5:27:37.290	0,804	0,307	1,451	-7,263	-4,333	-11,902	-1,269	-28,943	-9,827	-48,158	62,258	41,300	37,08															
03:31:46.774	COM3_115200	2000-0-0 5:23:9.725	0,417	-0,356	1,199	8,484	-7,507	3,784	2,455	-18,677	157,110	11,400	67,658	-52,142	40,29															
03:31:46.774	COM8_115200	2000-0-0 5:27:37.310	0,816	0,324	1,463	-4,333	-0,183	-11,902	-1,093	-28,960	-10,096	-48,158	62,258	41,300	37,01															
03:31:46.789	COM3_115200	2000-0-0 5:23:9.745	0,503	-0,375	1,119	8,728	-10,620	3,967	2,368	-18,885	157,203	11,400	67,658	-52,142	40,42															
03:31:46.789	COM8_115200	2000-0-0 5:27:37.330	0,771	0,336	1,460	-6,653	-7,019	-13,916	-0,901	-29,031	-10,393	-48,158	62,258	41,300	37,01															
03:31:46.805	COM3_115200	2000-0-0 5:23:9.765	0,500	-0,392	1,088	8,972	-6,714	4,578	2,302	-19,094	157,302	11,400	67,658	-52,142	40,36															
03:31:46.820	COM8_115200	2000-0-0 5:27:37.350	0,815	0,349	1,431	-7,507	-11,475	-15,869	-0,720	-29,213	-10,745	-48,158	62,258	41,300	36,98															
03:31:46.836	COM3_115200	2000-0-0 5:23:9.785	0,457	-0,419	1,126	11,230	-9,827	6,714	2,236	-19,297	157,456	11,400	67,658	-52,142	40,33															
03:31:46.836	COM8_115200	2000-0-0 5:27:37.370	0,823	0,351	1,438	-9,583	-15,320	-18,494	-0,544	-29,482	-11,135	-48,158	62,258	41,300	37,05															
03:31:46.852	COM3_115200	2000-0-0 5:23:9.805	0,476	-0,415	1,119	15,503	-9,399	8,179	2,236	-19,506	157,604	11,400	67,658	-52,142	40,45															
03:31:46.852	COM8_115200	2000-0-0 5:27:37.390	0,823	0,359	1,428	-9,827	-17,639	-22,461	-0,346	-29,795	-11,624	-48,158	62,258	41,300	37,08															
03:31:46.867	COM3_115200	2000-0-0 5:23:9.825	0,464	-0,431	1,080	16,541	-15,869	11,719	2,219	-19,797	157,857	11,400	67,658	-52,142	40,29															
03:31:46.883	COM8_115200	2000-0-0 5:27:37.410	0,779	0,365	1,409	-11,169	-15,686	-24,963	-0,132	-30,114	-12,178	-48,158	62,258	41,300	37,01															
03:31:46.883	COM3_115200	2000-0-0 5:23:9.845	0,498	-0,439	1,136	18,921	-17,700	13,855	2,241	-20,187	158,121	11,400	67,658	-52,142	40,23															
03:31:46.899	COM8_115200	2000-0-0 5:27:37.430	0,802	0,376	1,393	-14,282	-9,399	-27,283	0,055	-30,333	-12,794	-48,158	62,258	41,300	37,01															
03:31:46.914	COM3_115200	2000-0-0 5:23:9.865	0,520	-0,423	1,149	27,405	-14,038	16,174	2,357	-20,506	158,434	11,400	67,658	-52,142	40,14															
03:31:46.914	COM8_115200	2000-0-0 5:27:37.450	0,784	0,375	1,396	-17,273	-8,423	-29,114	0,220	-30,498	-13,464	-48,158	62,258	41,300	37,11															
03:31:46.930	COM3_115200	2000-0-0 5:23:9.885	0,457	-0,390	1,175	32,166	-2,991	14,038	2,593	-20,671	158,752	11,400	67,658	-52,142	40,11															
03:31:46.945	COM8_115200	2000-0-0 5:27:37.470	0,716	0,357	1,404	-19,348	-3,723	-30,762	0,374	-30,580	-14,167	-48,158	62,258	41,300	37,01															
03:31:46.945	COM3_115200	2000-0-0 5:23:9.905	0,430	-0,374	1,184	34,973	0,427	15,503	2,900	-20,731	159,093	11,400	67,658	-52,142	40,36															
03:31:46.961	COM8_115200	2000-0-0 5:27:37.490	0,706	0,357	1,388	-22,339	-0,549	-31,433	0,483	-30,580	-14,897	-48,158	62,258	41,300	36,98															
03:31:46.977	COM3_115200	2000-0-0 5:23:9.925	0,445	-0,373	1,162	35,706	0,366	15,503	3,246	-20,748	159,439	11,400	67,658	-52,142	40,20															
03:31:46.977	COM8_115200	2000-0-0 5:27:37.510	0,728	0,378	1,387	-25,085	5,493	-31,250	0,527	-30,493	-15,628	-48,158	62,258	41,300	37,08															
03:31:46.992	COM8_115200	2000-0-0 5:27:37.530	0,699	0,385	1,416	-25,330	13,733	-31,250	0,549	-30,240	-16,353	-48,158	62,258	41,300	37,05															
03:31:46.992	COM3_115200	2000-0-0 5:23:9.945	0,419	-0,402	1,208	38,574	2,441	13,123	3,620	-20,742	159,763	11,400	67,658	-52,142	40,23															
03:31:47.008	COM3_115200	2000-0-0 5:23:9.965	0,419	-0,407	1,278	48,523	-4,089	14,954	4,048	-20,726	160,087	11,400	67,658	-52,142	40,39															
03:31:47.024	COM8_115200	2000-0-0 5:27:37.550	0,708	0,380	1,438	-24,719	18,555	-31,189	0,577	-29,855	-17,078	-48,158	62,258	41,300	36,98															
03:31:47.024	COM3_115200	2000-0-0 5:23:9.985	0,376	-0,400	1,261	39,001	8,362	12,268	4,532	-20,588	160,345	11,400	67,658	-52,142	40,23															
03:31:47.055	COM8_115200	2000-0-0 5:27:37.570	0,673	0,437	1,459	-24,109	16,174	-29,602	0,615	-29,454	-17,770	-48,158	62,258	41,300	36,95															
03:31:47.055	COM3_115200	2000-0-0 5:23:10.005	0,422	-0,447	1,248	38,879	2,991	11,658	4,911	-20,528	160,670	11,400	67,658	-52,142	40,33															
03:31:47.070	COM8_115200	2000-0-0 5:27:37.590	0,720	0,468	1,449	-24,658	11,658	-30,762	0,632	-29,141	-18,452	-48,158	62,258	41,300	36,98															
03:31:47.070	COM8_115200	2000-0-0 5:27:37.610	0,706	0,489	1,474	-21,484	11,963	-29,846	0,698	-28,878	-19,144	-48,158	62,258	41,300	37,11															
03:31:47.070	COM3_115200	2000-0-0 5:23:10.025	0,439	-0,480	1,237	36,194	4,089	12,817	5,273	-20,429	160,944	11,400	67,658	-52,142	40,23															
03:31:47.102	COM3_115200	2000-0-0 5:23:10.045	0,384	-0,482	1,298	37,354	0,122	14,404	5,614	-20,396	161,274	11,400	67,658	-52,142	40,33															
03:31:47.102	COM8_115200	2000-0-0 5:27:37.630	0,631	0,464	1,493	-19,043	7,385	-28,442	0,807	-28,636	-19,797	-48,158	62,258	41,300	36,98															
03:31:47.117	COM3_115200	2000-0-0 5:23:10.065	0,379	-0,472	1,340	33,997	-5,127	13,000	5,916	-20,479	161,576	11,400	67,658	-52,142	40,29															
03:31:47.117	COM8_115200	2000-0-0 5:27:37.650	0,664	0,469	1,564	-18,311	2,380	-29,175	0,939	-28,510	-20,457	-48,158	62,258	41,300	37,08															
03:31:47.117	COM3_115200	2000-0-0 5:23:10.085	0,432	-0,497	1,298	28,076	-3,845	13,733	6,108	-20,566	161,895	11,400	67,658	-52,142	40,26															
03:31:47.133	COM8_115200	2000-0-0 5:27:37.670	0,688	0,469	1,533	-16,724	5,981	-26,917	1,077	-28,317	-21,094	-48,158	62,258	41,300	37,08															
03:31:47.164	COM3_115200	2000-0-0 5:23:10.105	0,378	-0,484	1,315	28,992	-0,183	11,475	6,301	-20,583	162,158	11,400	67,658	-52,142	40,20															
03:31:47.164	COM8_115200	2000-0-0 5:27:37.690	0,639	0,475	1,524	-14,038	9,033	-22,827	1,214	-28,103	-21,627	-48,158	62,258	41,300	36,82															
03:31:47.180	COM3_115200	2000-0-0 5:23:10.125	0,346	-0,464	1,291	25,879	-3,479	10,437	6,427	-20,610	162,449	11,400	67,658	-52,142	40,33															
03:31:47.180	COM8_115200	2000-0-0 5:27:37.710	0,677	0,491	1,475	-20,508	-2,136	-21,973	1,285	-28,037	-22,137	-48,158	62,258	41,300	37,01															
03:31:47.180	COM3_115200	2000-0-0 5:23:10.145	0,385	-0,511	1,288	13,428	-8,118	9,766	6,394	-20,715	162,669	11,400	67,658	-52,142	40,20															
03:31:47.195	COM8_115200	2000-0-0 5:27:37.730	0,647	0,548	1,532	-19,470	-7,751	-20,691	1,318	-28,048	-22,604	-48,158	62,258	41,300	37,01															
03:31:47.211	COM8_115200	2000-0-0 5:27:37.750	0,657	0,515	1,585	-20,081	-20,630	-22,400	1,351	-28,301	-23,110	-48,158	62,258	41,300	36,98															
03:31:47.226	COM3_115200	2000-0-0 5:23:10.165	0,374	-0,554	1,341	14,709	-7,935	8,667	6,301	-20,841	162,872	11,400	67,658	-52,142	40,20															
03:31:47.226	COM3_115200	2000-0-0 5:23:10.185	0,357	-0,531	1,359	17,700	-11,169	8,545	6,235	-21,017	163,081	11,400	67,658	-52,142	40,39															
03:31:47.242	COM8_115200	2000-0-0 5:27:37.770	0,699	0,488	1,538	-18,250	-13,977	-18,005	1,401	-28,581	-23,582	-48,158	62,258	41,300	36,98															
03:31:47.258	COM3_115200	2000-0-0 5:23:10.205	0,384	-0,510	1,205	11,414	-11,597	6,714	6,147	-21,198	163,251	11,400	67,658	-52,142	40,33															
03:31:47.258	COM8_115200	2000-0-0 5:27:37.790	0,708	0,562	1,427	-20,630	-9,399	-14,221	1,351	-28,713	-23,928	-48,158	62,258	41,300	37,11															
03:31:47.273	COM8_115200	2000-0-0 5:27:37.810	0,651	0,619	1,543	-20,386	-17,517	-19,287	1,346	-28,971	-24,307	-48,158	62,258	41,300	37,01															
03:31:47.273	COM3_115200	2000-0-0 5:23:10.225	0,346	-0,571	1,327	4,761	-17,395	7,019	5,971	-21,462	163,400	11,400	67,658	-52,142	40,20															
03:31:47.289	COM3_115200	2000-0-0 5:23:10.245	0,406	-0,623	1,290	11,963	-19,714	9,705	5,757	-21,780	163,559	11,400	67,658	-52,142	40,26															
03:31:47.289	COM8_115200	2000-0-0 5:27:37.830	0,685	0,573	1,536	-21,729	-31,311	-19,409	1,335	-29,471	-24,807	-48,158	62,258	41,300	37,08															
03:31:47.305	COM3_115200	2000-0-0 5:23:10.265	0,393	-0,609	1,258	13,672	-19,287	9,583	5,614	-22,110	163,784	11,400	67,658	-52,142	40,29															
03:31:47.320	COM8_115200	2000-0-0 5:27:37.850	0,643	0,564	1,531	-19,104	-28,076	-17,700	1,384	-29,938	-25,241	-48,158	62,258	41,300	37,01															
03:31:47.336	COM3_115200	2000-0-0 5:23:10.285	0,425	-0,630	1,249	14,709	-23,132	8,606	5,482	-22,495	163,982	11,400	67,658	-52,142	40,45															
03:31:47.336	COM8_115200	2000-0-0 5:27:37.870	0,659	0,550	1,509	-20,569	-20,020	-16,785	1,428	-30,339	-25,670	-48,158	62,258	41,300	36,98															
03:31:47.336	COM3_115200	2000-0-0 5:23:10.305	0,392	-0,625	1,295	16,296	-25,635	9,521	5,367	-22,939	164,185	11,400	67,658	-52,142	40,36															
03:31:47.351	COM8_115200	2000-0-0 5:27:37.890	0,641	0,610	1,473	-20,081	-10,193	-14,526	1,423	-30,476	-26,038	-48,158	62,258	41,300	36,98															
03:31:47.367	COM3_115200	2000-0-0 5:23:10.325	0,325	-0,613	1,325	19,287	-22,705	7,690	5,328	-23,357	164,366	11,400	67,658	-52,142	40,29															
03:31:47.383	COM8_115200	2000-0-0 5:27:37.910	0,571	0,594	1,505	-21,484	-15,015	-17,334	1,439	-30,613	-26,444	-48,158	62,258	41,300	36,98															
03:31:47.414	COM3_115200	2000-0-0 5:23:10.345	0,369	-0,610	1,270	19,714	-22,339	5,737	5,317	-23,747	164,537	11,400	67,658	-52,142	40,33															
03:31:47.414	COM3_115200	2000-0-0 5:23:10.365	0,345	-0,611	1,259	23,926	-18,982	6,958	5,350	-24,066	164,691	11,400	67,658	-52,142	40,45															
03:31:47.430	COM8_115200	2000-0-0 5:27:37.930	0,626	0,538	1,541	-21,606	-12,085	-18,188	1,472	-30,806	-26,895	-48,158	62,258	41,300	37,08															
03:31:47.430	COM8_115200	2000-0-0 5:27:37.950	0,685	0,590	1,492	-20,691	6,042	-16,235	1,494	-30,729	-27,312	-48,158	62,258	41,300	37,08															
03:31:47.430	COM3_115200	2000-0-0 5:23:10.385	0,293	-0,583	1,324	26,428	-13,184	7,813	5,438	-24,291	164,905	11,400	67,658	-52,142	40,20															
03:31:47.445	COM3_115200	2000-0-0 5:23:10.405	0,299	-0,577	1,328	26,367	-2,502	5,188	5,548	-24,329	165,092	11,400	67,658	-52,142	40,20															
03:31:47.445	COM8_115200	2000-0-0 5:27:37.970	0,615	0,661	1,486	-17,273	10,986	-19,104	1,582	-30,383	-27,729	-48,158	62,258	41,300	36,98															
03:31:47.461	COM8_115200	2000-0-0 5:27:37.990	0,574	0,587	1,544	-17,578	5,676	-20,081	1,697	-30,108	-28,202	-48,158	62,258	41,300	37,05															
03:31:47.461	COM3_115200	2000-0-0 5:23:10.425	0,317	-0,593	1,297	25,940	4,761	6,409	5,630	-24,170	165,306	11,400	67,658	-52,142	40,26															
03:31:47.477	COM8_115200	2000-0-0 5:27:38.010	0,630	0,580	1,584	-14,954	9,949	-18,982	1,835	-29,844	-28,674	-48,158	62,258	41,300	37,05															
03:31:47.492	COM3_115200	2000-0-0 5:23:10.445	0,320	-0,596	1,312	26,184	9,827	8,423	5,713	-23,906	165,553	11,400	67,658	-52,142	40,39															
03:31:47.492	COM8_115200	2000-0-0 5:27:38.030	0,610	0,601	1,511	-17,700	20,508	-13,489	1,928	-29,421	-29,015	-48,158	62,258	41,300	37,05															
03:31:47.508	COM3_115200	2000-0-0 5:23:10.465	0,312	-0,580	1,383	26,428	12,817	5,249	5,812	-23,577	165,784	11,400	67,658	-52,142	40,26															
03:31:47.508	COM8_115200	2000-0-0 5:27:38.050	0,608	0,673	1,497	-14,771	25,024	-16,357	2,000	-28,850	-29,361	-48,158	62,258	41,300	37,01															
03:31:47.531	COM3_115200	2000-0-0 5:23:10.485	0,341	-0,631	1,338	20,630	15,198	4,761	5,850	-23,176	165,981	11,400	67,658	-52,142	40,39															
03:31:47.549	COM8_115200	2000-0-0 5:27:38.070	0,543	0,649	1,575	-17,639	13,184	-18,311	2,109	-28,378	-29,751	-48,158	62,258	41,300	36,98															
03:31:47.559	COM3_115200	2000-0-0 5:23:10.505	0,343	-0,672	1,281	23,438	13,306	4,883	5,861	-22,797	166,163	11,400	67,658	-52,142	40,20															
03:31:47.563	COM8_115200	2000-0-0 5:27:38.090	0,607	0,632	1,609	-13,672	8,301	-16,541	2,241	-28,076	-30,157	-48,158	62,258	41,300	36,98															
03:31:47.580	COM3_115200	2000-0-0 5:23:10.525	0,324	-0,651	1,375	23,315	6,348	5,066	5,894	-22,527	166,360	11,400	67,658	-52,142	40,42															
03:31:47.589	COM8_115200	2000-0-0 5:27:38.110	0,640	0,623	1,513	-13,611	19,043	-12,024	2,335	-27,702	-30,454	-48,158	62,258	41,300	37,01															
03:31:47.589	COM3_115200	2000-0-0 5:23:10.545	0,291	-0,609	1,445	17,822	7,080	5,371	5,883	-22,308	166,536	11,400	67,658	-52,142	40,36															
03:31:47.605	COM8_115200	2000-0-0 5:27:38.130	0,612	0,768	1,552	-9,766	14,221	-16,052	2,488	-27,241	-30,751	-48,158	62,258	41,300	37,01															
03:31:47.605	COM3_115200	2000-0-0 5:23:10.565	0,301	-0,653	1,310	12,878	8,423	4,456	5,762	-22,044	166,707	11,400	67,658	-52,142	40,33															
03:31:47.621	COM8_115200	2000-0-0 5:27:38.150	0,520	0,667	1,606	-13,306	-7,019	-17,578	2,686	-27,092	-31,146	-48,158	62,258	41,300	37,08															
03:31:47.621	COM3_115200	2000-0-0 5:23:10.585	0,325	-0,702	1,296	13,977	4,028	5,676	5,581	-21,835	166,899	11,400	67,658	-52,142	40,26															
03:31:47.636	COM8_115200	2000-0-0 5:27:38.170	0,628	0,659	1,635	-9,460	-10,071	-17,395	2,862	-27,219	-31,542	-48,158	62,258	41,300	37,14															
03:31:47.652	COM3_115200	2000-0-0 5:23:10.605	0,311	-0,660	1,398	11,902	-4,639	10,437	5,394	-21,769	167,141	11,400	67,658	-52,142	40,36															
03:31:47.652	COM8_115200	2000-0-0 5:27:38.190	0,580	0,640	1,550	-10,071	-4,822	-11,658	3,049	-27,241	-31,860	-48,158	62,258	41,300	36,98															
03:31:47.668	COM3_115200	2000-0-0 5:23:10.625	0,333	-0,613	1,467	10,315	-8,240	5,920	5,186	-21,830	167,327	11,400	67,658	-52,142	40,33															
03:31:47.683	COM8_115200	2000-0-0 5:27:38.210	0,568	0,695	1,552	-11,230	-6,348	-14,282	3,219	-27,235	-32,157	-48,158	62,258	41,300	37,08															
03:31:47.683	COM3_115200	2000-0-0 5:23:10.645	0,319	-0,635	1,316	3,784	-5,188	2,930	4,916	-21,852	167,448	11,400	67,658	-52,142	40,29															
03:31:47.699	COM8_115200	2000-0-0 5:27:38.230	0,514	0,649	1,632	-10,681	-13,123	-11,963	3,378	-27,318	-32,470	-48,158	62,258	41,300	37,14															
03:31:47.699	COM3_115200	2000-0-0 5:23:10.665	0,318	-0,714	1,324	6,165	-9,399	0,122	4,609	-21,918	167,520	11,400	67,658	-52,142	40,29															
03:31:47.715	COM8_115200	2000-0-0 5:27:38.250	0,608	0,685	1,638	-12,146	-18,738	-11,597	3,521	-27,526	-32,745	-48,158	62,258	41,300	36,92															
03:31:47.730	COM3_115200	2000-0-0 5:23:10.685	0,316	-0,700	1,384	5,432	-15,503	4,944	4,329	-22,077	167,662	11,400	67,658	-52,142	40,23															
03:31:47.746	COM8_115200	2000-0-0 5:27:38.270	0,617	0,738	1,524	-10,681	-11,230	-7,690	3,615	-27,675	-32,964	-48,158	62,258	41,300	37,05															
03:31:47.746	COM3_115200	2000-0-0 5:23:10.705	0,321	-0,686	1,355	5,066	-14,648	3,601	4,059	-22,269	167,756	11,400	67,658	-52,142	40,39															
03:31:47.761	COM8_115200	2000-0-0 5:27:38.290	0,535	0,743	1,570	-11,841	-13,000	-13,977	3,768	-27,773	-33,239	-48,158	62,258	41,300	37,08															
03:31:47.793	COM8_115200	2000-0-0 5:27:38.310	0,567	0,714	1,610	-11,963	-19,836	-13,367	3,922	-28,004	-33,585	-48,158	62,258	41,300	36,98															
03:31:47.793	COM8_115200	2000-0-0 5:27:38.330	0,581	0,717	1,565	-9,583	-17,639	-10,315	4,103	-28,246	-33,871	-48,158	62,258	41,300	37,05															
03:31:47.793	COM3_115200	2000-0-0 5:23:10.725	0,308	-0,720	1,302	5,371	-16,846	1,160	3,785	-22,489	167,833	11,400	67,658	-52,142	40,33															
03:31:47.793	COM3_115200	2000-0-0 5:23:10.745	0,343	-0,745	1,326	8,301	-19,592	5,249	3,510	-22,747	167,948	11,400	67,658	-52,142	40,26															
03:31:47.824	COM8_115200	2000-0-0 5:27:38.350	0,598	0,768	1,495	-12,756	-8,972	-11,719	4,230	-28,345	-34,140	-48,158	62,258	41,300	37,11															
03:31:47.824	COM3_115200	2000-0-0 5:23:10.765	0,310	-0,716	1,369	9,644	-25,330	7,324	3,274	-23,088	168,135	11,400	67,658	-52,142	40,33															
03:31:47.824	COM3_115200	2000-0-0 5:23:10.785	0,277	-0,689	1,360	11,169	-26,672	5,920	3,065	-23,511	168,305	11,400	67,658	-52,142	40,33															
