Time	COM	Chip Time()	Acceleration X(g)	Acceleration Y(g)	Acceleration Z(g)	Angular velocity X(/s)	Angular velocity Y(/s)	Angular velocity Z(/s)	Angle X()	Angle Y()	Angle Z()	Magnetic field X(?t)	Magnetic field Y(?t)	Magnetic field Z(?t)	Temperature(?)	Pressure(Pa)	Height(m)	Longitude()	Latitude()	GPS ground speed(km)	GPS course()	GPS height(m)	Number of satellites()	Position location()	Horizontal position()	Vertical position()	Quaternions 0()	Quaternions 1()	Quaternions 2()	Quaternions 3()
04:02:55.747	COM3_115200	2000-0-0 5:54:19.095	-0,464	0,869	1,765	0,122	-1,892	0,610	26,027	13,140	-34,096	16,292	-20,408	-4,700	38,37															
04:02:55.762	COM8_115200	2000-0-0 5:58:41.360	0,498	0,828	1,699	-0,244	0,671	0,183	25,444	-15,271	72,263	-48,158	62,258	41,300	35,25															
04:02:55.776	COM3_115200	2000-0-0 5:54:19.115	-0,464	0,879	1,760	-0,488	-2,319	0,061	26,021	13,090	-34,113	16,267	-20,508	-4,725	38,37															
04:02:55.790	COM8_115200	2000-0-0 5:58:41.380	0,500	0,821	1,708	-1,099	-1,099	0,366	25,433	-15,276	72,257	-48,158	62,258	41,300	35,22															
04:02:55.791	COM8_115200	2000-0-0 5:58:41.400	0,487	0,811	1,705	-2,258	-1,343	1,099	25,400	-15,298	72,263	-48,158	62,258	41,300	35,18															
04:02:55.806	COM3_115200	2000-0-0 5:54:19.135	-0,444	0,869	1,764	-0,549	-1,892	0,488	26,010	13,046	-34,135	16,308	-20,492	-4,708	38,37															
04:02:55.816	COM8_115200	2000-0-0 5:58:41.420	0,528	0,817	1,680	-1,587	-0,610	1,404	25,356	-15,326	72,285	-48,158	62,258	41,300	34,96															
04:02:55.832	COM3_115200	2000-0-0 5:54:19.155	-0,443	0,872	1,764	0,244	-1,831	0,122	26,010	13,008	-34,146	16,333	-20,433	-4,658	38,50															
04:02:55.845	COM8_115200	2000-0-0 5:58:41.440	0,487	0,827	1,699	-0,488	-1,648	0,671	25,345	-15,348	72,290	-48,158	62,258	41,300	35,15															
04:02:55.851	COM8_115200	2000-0-0 5:58:41.460	0,494	0,829	1,692	-1,709	-1,587	0,366	25,329	-15,375	72,285	-48,158	62,258	41,300	35,25															
04:02:55.856	COM3_115200	2000-0-0 5:54:19.175	-0,452	0,895	1,766	-0,122	-1,770	-0,061	26,010	12,969	-34,173	16,333	-20,383	-4,675	38,31															
04:02:55.860	COM3_115200	2000-0-0 5:54:19.195	-0,444	0,879	1,765	-0,732	-0,793	0,610	26,005	12,947	-34,173	16,317	-20,408	-4,642	38,37															
04:02:55.869	COM3_115200	2000-0-0 5:54:19.215	-0,453	0,866	1,770	-0,122	-0,977	0,732	26,005	12,920	-34,167	16,275	-20,417	-4,750	38,37															
04:02:55.871	COM8_115200	2000-0-0 5:58:41.480	0,506	0,814	1,694	-1,526	-1,282	0,183	25,302	-15,397	72,274	-48,158	62,258	41,300	35,28															
04:02:55.886	COM3_115200	2000-0-0 5:54:19.235	-0,459	0,865	1,767	-0,610	-1,099	-0,244	25,999	12,898	-34,173	16,208	-20,392	-4,625	38,18															
04:02:55.895	COM8_115200	2000-0-0 5:58:41.500	0,508	0,805	1,697	-1,160	-1,343	0,671	25,280	-15,419	72,268	-48,158	62,258	41,300	35,12															
04:02:55.906	COM3_115200	2000-0-0 5:54:19.255	-0,444	0,873	1,772	-0,916	-0,366	0,000	25,988	12,887	-34,184	16,208	-20,350	-4,725	38,50															
04:02:55.914	COM8_115200	2000-0-0 5:58:41.520	0,484	0,809	1,704	-1,526	-0,488	0,610	25,252	-15,430	72,279	-48,158	62,258	41,300	35,18															
04:02:55.929	COM3_115200	2000-0-0 5:54:19.275	-0,438	0,871	1,777	-2,380	0,427	1,038	25,961	12,881	-34,173	16,250	-20,383	-4,775	38,43															
04:02:55.931	COM8_115200	2000-0-0 5:58:41.540	0,527	0,811	1,685	-2,014	1,282	0,732	25,208	-15,425	72,296	-48,158	62,258	41,300	35,09															
04:02:55.946	COM3_115200	2000-0-0 5:54:19.295	-0,447	0,873	1,769	-3,235	0,000	-0,122	25,911	12,881	-34,162	16,208	-20,375	-4,750	38,31															
04:02:55.983	COM3_115200	2000-0-0 5:54:19.315	-0,454	0,880	1,770	-3,357	0,793	-1,038	25,845	12,898	-34,178	16,200	-20,392	-4,858	38,43															
04:02:55.988	COM3_115200	2000-0-0 5:54:19.335	-0,442	0,878	1,785	-3,601	1,343	0,244	25,785	12,920	-34,173	16,250	-20,425	-4,967	38,43															
04:02:56.014	COM3_115200	2000-0-0 5:54:19.355	-0,444	0,876	1,781	-3,296	0,549	1,160	25,730	12,925	-34,151	16,283	-20,433	-4,983	38,37															
04:02:56.025	COM3_115200	2000-0-0 5:54:19.375	-0,438	0,877	1,775	-3,418	0,427	-0,305	25,670	12,931	-34,146	16,283	-20,392	-5,133	38,37															
04:02:56.038	COM8_115200	2000-0-0 5:58:41.560	0,484	0,811	1,704	-1,526	0,854	-0,427	25,175	-15,392	72,312	-48,158	62,258	41,300	35,15															
04:02:56.039	COM8_115200	2000-0-0 5:58:41.580	0,477	0,827	1,711	-2,563	1,526	-1,282	25,137	-15,348	72,301	-48,158	62,258	41,300	35,09															
04:02:56.041	COM8_115200	2000-0-0 5:58:41.600	0,497	0,822	1,706	-3,906	1,953	-0,549	25,076	-15,309	72,301	-48,158	62,258	41,300	35,09															
04:02:56.042	COM8_115200	2000-0-0 5:58:41.620	0,512	0,823	1,709	-2,930	3,418	-0,305	25,010	-15,249	72,318	-48,158	62,258	41,300	35,12															
04:02:56.043	COM8_115200	2000-0-0 5:58:41.640	0,496	0,821	1,730	-2,319	2,258	-0,610	24,966	-15,189	72,334	-48,158	62,258	41,300	35,28															
04:02:56.047	COM3_115200	2000-0-0 5:54:19.395	-0,442	0,876	1,778	-3,296	0,061	-0,488	25,615	12,936	-34,151	16,275	-20,383	-5,175	38,50															
04:02:56.066	COM3_115200	2000-0-0 5:54:19.415	-0,444	0,880	1,777	-2,258	-1,038	-0,244	25,565	12,925	-34,162	16,250	-20,433	-5,142	38,43															
04:02:56.071	COM8_115200	2000-0-0 5:58:41.660	0,495	0,820	1,727	-3,113	1,648	-0,366	24,917	-15,145	72,345	-48,158	62,258	41,300	35,25															
04:02:56.072	COM8_115200	2000-0-0 5:58:41.680	0,517	0,820	1,713	-2,380	0,977	-0,061	24,868	-15,117	72,350	-48,158	62,258	41,300	35,18															
04:02:56.092	COM8_115200	2000-0-0 5:58:41.700	0,489	0,820	1,726	-1,892	0,000	0,427	24,835	-15,106	72,361	-48,158	62,258	41,300	35,06															
04:02:56.093	COM3_115200	2000-0-0 5:54:19.435	-0,426	0,882	1,782	-1,892	-1,038	0,427	25,538	12,909	-34,167	16,283	-20,442	-5,133	38,37															
04:02:56.107	COM3_115200	2000-0-0 5:54:19.455	-0,441	0,874	1,783	-1,526	-1,038	-0,366	25,510	12,887	-34,173	16,333	-20,425	-5,200	38,37															
04:02:56.109	COM8_115200	2000-0-0 5:58:41.720	0,514	0,808	1,722	-1,526	0,000	0,916	24,796	-15,106	72,378	-48,158	62,258	41,300	35,15															
04:02:56.126	COM3_115200	2000-0-0 5:54:19.475	-0,440	0,875	1,783	-0,366	-1,770	-2,197	25,494	12,870	-34,211	16,308	-20,458	-5,392	38,37															
04:02:56.138	COM8_115200	2000-0-0 5:58:41.740	0,478	0,813	1,728	-0,427	-1,099	0,549	24,791	-15,112	72,383	-48,158	62,258	41,300	35,22															
04:02:56.147	COM3_115200	2000-0-0 5:54:19.495	-0,459	0,879	1,782	0,305	-2,014	-2,502	25,488	12,859	-34,277	16,225	-20,492	-5,475	38,31															
04:02:56.168	COM8_115200	2000-0-0 5:58:41.760	0,504	0,821	1,718	-0,732	-1,587	0,671	24,791	-15,139	72,383	-48,158	62,258	41,300	35,22															
04:02:56.172	COM3_115200	2000-0-0 5:54:19.515	-0,435	0,877	1,784	0,732	-1,160	-1,465	25,505	12,849	-34,321	16,317	-20,533	-5,558	38,31															
04:02:56.201	COM8_115200	2000-0-0 5:58:41.780	0,511	0,825	1,703	-0,671	-1,526	1,343	24,780	-15,172	72,394	-48,158	62,258	41,300	35,15															
04:02:56.202	COM8_115200	2000-0-0 5:58:41.800	0,506	0,834	1,713	1,282	-1,343	1,221	24,791	-15,194	72,411	-48,158	62,258	41,300	35,09															
04:02:56.208	COM3_115200	2000-0-0 5:54:19.535	-0,443	0,880	1,778	1,282	-1,587	-1,770	25,527	12,838	-34,360	16,417	-20,483	-5,550	38,43															
04:02:56.211	COM8_115200	2000-0-0 5:58:41.820	0,511	0,836	1,720	1,221	-2,686	1,160	24,829	-15,244	72,411	-48,158	62,258	41,300	35,18															
04:02:56.212	COM3_115200	2000-0-0 5:54:19.555	-0,484	0,896	1,765	1,892	-2,014	-3,052	25,554	12,821	-34,426	16,450	-20,458	-5,558	38,43															
04:02:56.232	COM8_115200	2000-0-0 5:58:41.840	0,516	0,831	1,703	-0,549	-2,808	2,319	24,835	-15,304	72,422	-48,158	62,258	41,300	35,15															
04:02:56.240	COM3_115200	2000-0-0 5:54:19.575	-0,446	0,896	1,771	2,380	-0,610	-1,709	25,598	12,827	-34,481	16,467	-20,433	-5,483	38,37															
04:02:56.249	COM3_115200	2000-0-0 5:54:19.595	-0,464	0,890	1,774	1,953	-1,038	-1,221	25,642	12,816	-34,514	16,492	-20,433	-5,433	38,24															
04:02:56.254	COM8_115200	2000-0-0 5:58:41.860	0,521	0,813	1,684	0,671	-2,319	2,319	24,840	-15,359	72,444	-48,158	62,258	41,300	35,15															
04:02:56.271	COM8_115200	2000-0-0 5:58:41.880	0,486	0,822	1,705	1,770	-2,075	0,793	24,879	-15,397	72,455	-48,158	62,258	41,300	35,00															
04:02:56.275	COM3_115200	2000-0-0 5:54:19.615	-0,465	0,887	1,758	0,916	-0,854	-3,174	25,670	12,821	-34,563	16,567	-20,408	-5,200	38,31															
04:02:56.286	COM3_115200	2000-0-0 5:54:19.635	-0,435	0,888	1,763	0,732	-0,305	-2,014	25,686	12,832	-34,618	16,675	-20,458	-5,192	38,37															
04:02:56.301	COM8_115200	2000-0-0 5:58:41.900	0,503	0,821	1,698	-0,427	-2,075	-0,427	24,906	-15,430	72,438	-48,158	62,258	41,300	35,18															
04:02:56.311	COM8_115200	2000-0-0 5:58:41.920	0,518	0,811	1,673	-1,770	-1,831	-1,526	24,890	-15,452	72,405	-48,158	62,258	41,300	35,15															
04:02:56.323	COM3_115200	2000-0-0 5:54:19.655	-0,453	0,878	1,763	-0,122	-0,488	-0,183	25,697	12,832	-34,634	16,800	-20,517	-5,233	38,37															
04:02:56.327	COM3_115200	2000-0-0 5:54:19.675	-0,449	0,869	1,753	-1,099	-1,221	-0,549	25,692	12,821	-34,651	16,833	-20,475	-5,117	38,24															
04:02:56.331	COM8_115200	2000-0-0 5:58:41.940	0,507	0,814	1,682	-0,610	-0,488	-3,113	24,895	-15,441	72,350	-48,158	62,258	41,300	35,34															
04:02:56.347	COM3_115200	2000-0-0 5:54:19.695	-0,459	0,871	1,751	-2,686	-1,404	-1,404	25,648	12,810	-34,684	16,892	-20,450	-5,133	38,37															
04:02:56.349	COM8_115200	2000-0-0 5:58:41.960	0,500	0,816	1,700	-1,953	-0,732	-4,333	24,901	-15,414	72,274	-48,158	62,258	41,300	35,28															
04:02:56.364	COM3_115200	2000-0-0 5:54:19.715	-0,449	0,866	1,761	-4,028	-0,610	-1,282	25,582	12,810	-34,722	16,950	-20,375	-5,250	38,31															
04:02:56.372	COM8_115200	2000-0-0 5:58:41.980	0,499	0,808	1,702	-5,859	-2,258	-3,479	24,846	-15,414	72,180	-48,158	62,258	41,300	35,28															
04:02:56.387	COM3_115200	2000-0-0 5:54:19.735	-0,436	0,845	1,772	-5,127	0,549	-1,709	25,494	12,816	-34,744	16,958	-20,317	-5,233	38,37															
04:02:56.394	COM8_115200	2000-0-0 5:58:42.000	0,511	0,804	1,695	-5,798	-2,136	-2,319	24,752	-15,419	72,114	-48,158	62,258	41,300	35,15															
04:02:56.409	COM3_115200	2000-0-0 5:54:19.755	-0,427	0,841	1,777	-6,653	1,221	-5,432	25,367	12,870	-34,805	16,950	-20,233	-5,367	38,31															
04:02:56.412	COM8_115200	2000-0-0 5:58:42.020	0,478	0,795	1,735	-5,737	-4,272	-1,099	24,664	-15,458	72,059	-48,158	62,258	41,300	35,22															
04:02:56.426	COM3_115200	2000-0-0 5:54:19.775	-0,458	0,823	1,782	-7,080	2,869	-9,460	25,208	12,986	-34,931	17,025	-20,233	-5,533	38,24															
04:02:56.430	COM8_115200	2000-0-0 5:58:42.040	0,468	0,786	1,760	-8,484	-7,019	2,258	24,532	-15,562	72,026	-48,158	62,258	41,300	35,28															
04:02:56.446	COM3_115200	2000-0-0 5:54:19.795	-0,431	0,834	1,801	-6,592	5,737	-11,719	25,043	13,151	-35,096	17,133	-20,283	-5,683	38,37															
04:02:56.453	COM8_115200	2000-0-0 5:58:42.060	0,457	0,760	1,763	-13,489	-13,611	9,766	24,302	-15,809	72,054	-48,158	62,258	41,300	35,15															
04:02:56.468	COM3_115200	2000-0-0 5:54:19.815	-0,417	0,821	1,835	-8,911	14,709	-14,526	24,862	13,447	-35,239	17,225	-20,217	-5,817	38,37															
04:02:56.473	COM8_115200	2000-0-0 5:58:42.080	0,494	0,786	1,753	-10,986	-12,756	14,648	24,027	-16,139	72,197	-48,158	62,258	41,300	35,12															
04:02:56.487	COM3_115200	2000-0-0 5:54:19.835	-0,368	0,810	1,852	-13,550	28,381	-24,536	24,593	13,997	-35,431	17,467	-20,117	-5,950	38,37															
04:02:56.494	COM8_115200	2000-0-0 5:58:42.100	0,420	0,805	1,827	-12,207	-30,518	18,250	23,785	-16,666	72,318	-48,158	62,258	41,300	35,15															
04:02:56.510	COM3_115200	2000-0-0 5:54:19.855	-0,457	0,779	1,863	-16,235	43,152	-35,400	24,219	14,919	-35,717	17,733	-20,017	-6,083	38,43															
04:02:56.538	COM8_115200	2000-0-0 5:58:42.120	0,429	0,782	1,870	-23,193	-49,011	23,926	23,406	-17,578	72,372	-48,158	62,258	41,300	35,25															
04:02:56.541	COM8_115200	2000-0-0 5:58:42.140	0,493	0,761	1,800	-28,198	-52,795	29,114	22,830	-18,699	72,482	-48,158	62,258	41,300	35,25															
04:02:56.545	COM3_115200	2000-0-0 5:54:19.875	-0,580	0,860	1,844	-11,658	46,326	-33,142	23,868	15,980	-36,019	18,217	-19,867	-6,000	38,31															
04:02:56.569	COM8_115200	2000-0-0 5:58:42.160	0,571	0,778	1,693	-22,949	-44,861	27,161	22,231	-19,737	72,680	-48,158	62,258	41,300	35,00															
04:02:56.572	COM3_115200	2000-0-0 5:54:19.895	-0,369	0,803	1,921	-17,822	70,923	-29,053	23,571	17,298	-36,079	18,842	-19,642	-6,025	38,31															
04:02:56.577	COM3_115200	2000-0-0 5:54:19.915	-0,479	0,744	1,908	-24,170	83,679	-36,560	23,137	18,962	-36,019	19,417	-19,417	-6,025	38,18															
04:02:56.609	COM3_115200	2000-0-0 5:54:19.935	-0,492	0,649	1,828	-21,118	75,134	-52,979	22,588	20,726	-36,288	20,058	-19,208	-6,083	38,37															
04:02:56.624	COM8_115200	2000-0-0 5:58:42.180	0,419	0,863	1,752	-24,353	-37,048	24,597	21,742	-20,594	72,894	-48,158	62,258	41,300	35,15															
04:02:56.625	COM8_115200	2000-0-0 5:58:42.200	0,751	0,708	1,886	-27,771	-63,782	19,348	21,237	-21,621	72,916	-48,158	62,258	41,300	35,25															
04:02:56.627	COM3_115200	2000-0-0 5:54:19.955	-0,838	0,802	1,862	1,953	72,693	-47,729	22,242	22,247	-36,799	20,792	-18,892	-5,783	38,43															
04:02:56.629	COM3_115200	2000-0-0 5:54:19.975	-0,547	0,957	1,795	-5,188	101,807	-53,528	22,236	24,269	-36,760	21,592	-18,483	-5,575	38,18															
04:02:56.635	COM8_115200	2000-0-0 5:58:42.220	0,416	0,604	1,771	-28,503	-20,691	19,897	20,627	-22,363	73,191	-48,158	62,258	41,300	35,09															
04:02:56.637	COM8_115200	2000-0-0 5:58:42.240	0,556	0,840	1,662	-14,404	-11,475	23,926	20,182	-22,742	73,553	-48,158	62,258	41,300	35,18															
04:02:56.646	COM3_115200	2000-0-0 5:54:19.995	0,264	0,589	1,983	1,892	21,362	-51,453	22,088	25,642	-37,189	22,408	-18,175	-5,108	38,31															
04:02:56.663	COM8_115200	2000-0-0 5:58:42.260	0,462	0,876	1,642	-17,212	1,831	14,160	19,803	-22,791	73,911	-48,158	62,258	41,300	35,22															
04:02:56.668	COM3_115200	2000-0-0 5:54:20.015	-0,847	0,717	1,721	20,569	24,597	-32,410	22,165	26,153	-37,661	23,317	-17,842	-4,433	38,43															
04:02:56.679	COM8_115200	2000-0-0 5:58:42.280	0,328	0,719	1,772	-24,353	21,667	9,460	19,330	-22,462	74,493	-48,158	62,258	41,300	35,15															
04:02:56.689	COM3_115200	2000-0-0 5:54:20.035	-0,746	0,746	1,655	39,856	-18,433	-58,044	22,209	26,208	-39,045	24,117	-17,467	-3,800	38,43															
04:02:56.692	COM8_115200	2000-0-0 5:58:42.300	0,729	0,702	1,765	1,709	35,156	25,269	19,045	-22,083	75,015	-48,158	62,258	41,300	35,18															
04:02:56.706	COM3_115200	2000-0-0 5:54:20.055	-0,411	0,934	1,875	35,889	20,264	-19,287	22,780	26,406	-39,721	25,133	-16,983	-3,158	38,43															
04:02:56.711	COM8_115200	2000-0-0 5:58:42.320	0,469	0,936	1,729	13,428	47,974	24,658	18,990	-21,248	75,894	-48,158	62,258	41,300	35,41															
04:02:56.732	COM8_115200	2000-0-0 5:58:42.340	0,615	0,947	1,825	6,409	30,151	16,968	19,034	-20,632	76,503	-48,158	62,258	41,300	35,22															
04:02:56.742	COM3_115200	2000-0-0 5:54:20.075	-0,627	0,757	1,792	30,457	14,893	-22,339	23,269	26,669	-39,930	26,117	-16,583	-2,417	38,50															
04:02:56.746	COM3_115200	2000-0-0 5:54:20.095	-0,603	0,769	1,755	46,997	-10,071	-36,987	23,835	26,823	-40,589	26,883	-16,175	-1,675	38,37															
04:02:56.752	COM8_115200	2000-0-0 5:58:42.360	0,528	0,730	1,895	-0,916	36,255	16,907	18,907	-20,034	77,075	-48,158	62,258	41,300	35,25															
04:02:56.766	COM3_115200	2000-0-0 5:54:20.115	-0,756	0,743	1,588	59,082	-17,517	-19,043	24,500	26,559	-41,385	27,617	-15,675	-0,750	38,31															
04:02:56.773	COM8_115200	2000-0-0 5:58:42.380	0,616	0,700	1,761	30,273	46,875	18,616	19,050	-19,308	77,739	-48,158	62,258	41,300	35,28															
04:02:56.788	COM3_115200	2000-0-0 5:54:20.135	-0,465	0,868	1,802	64,087	-14,771	-2,869	25,714	26,219	-41,627	28,283	-15,250	0,358	38,43															
04:02:56.796	COM8_115200	2000-0-0 5:58:42.400	0,547	0,844	1,730	36,987	46,997	13,245	19,649	-18,474	78,420	-48,158	62,258	41,300	35,22															
04:02:56.807	COM3_115200	2000-0-0 5:54:20.155	-0,571	0,726	1,733	57,678	-5,005	-7,874	26,741	25,955	-41,852	28,908	-14,817	1,542	38,24															
04:02:56.814	COM8_115200	2000-0-0 5:58:42.420	0,563	0,798	1,844	34,851	35,156	16,235	20,325	-17,831	78,942	-48,158	62,258	41,300	35,03															
04:02:56.827	COM3_115200	2000-0-0 5:54:20.175	-0,581	0,662	1,640	62,500	-12,878	-13,000	27,790	25,851	-42,166	29,325	-14,350	2,667	38,37															
04:02:56.832	COM8_115200	2000-0-0 5:58:42.440	0,512	0,666	1,846	29,480	32,288	19,409	20,808	-17,303	79,514	-48,158	62,258	41,300	35,12															
04:02:56.847	COM3_115200	2000-0-0 5:54:20.195	-0,736	0,685	1,562	75,623	-12,268	-6,287	28,922	25,521	-42,506	29,750	-13,808	3,825	38,37															
04:02:56.855	COM8_115200	2000-0-0 5:58:42.460	0,657	0,637	1,752	52,490	37,109	20,447	21,434	-16,765	80,206	-48,158	62,258	41,300	35,22															
04:02:56.871	COM8_115200	2000-0-0 5:58:42.480	0,570	0,844	1,768	61,890	25,024	24,780	22,511	-16,359	80,925	-48,158	62,258	41,300	35,22															
04:02:56.880	COM3_115200	2000-0-0 5:54:20.215	-0,396	0,772	1,690	64,514	-8,057	-10,315	30,179	25,422	-42,726	30,108	-13,400	5,075	38,43															
04:02:56.918	COM8_115200	2000-0-0 5:58:42.500	0,541	0,729	1,790	41,016	10,559	21,179	23,297	-16,249	81,491	-48,158	62,258	41,300	35,03															
04:02:56.920	COM8_115200	2000-0-0 5:58:42.520	0,578	0,631	1,775	48,401	-6,226	28,015	24,060	-16,452	81,931	-48,158	62,258	41,300	35,22															
04:02:56.921	COM3_115200	2000-0-0 5:54:20.235	-0,572	0,740	1,566	65,491	13,306	-2,441	31,328	25,411	-42,808	30,425	-12,933	6,683	38,31															
04:02:56.935	COM3_115200	2000-0-0 5:54:20.255	-0,493	0,668	1,566	59,753	3,906	-20,508	32,415	25,609	-42,940	30,650	-12,417	8,342	38,43															
04:02:56.937	COM3_115200	2000-0-0 5:54:20.275	-0,632	0,553	1,492	63,049	2,197	-16,968	33,272	25,746	-43,374	30,983	-11,825	9,883	38,37															
04:02:56.942	COM8_115200	2000-0-0 5:58:42.540	0,705	0,632	1,692	63,416	-9,216	25,696	24,999	-16,798	82,392	-48,158	62,258	41,300	35,28															
04:02:56.946	COM3_115200	2000-0-0 5:54:20.295	-0,599	0,749	1,590	66,650	16,235	-17,456	34,453	26,153	-43,347	31,358	-11,158	11,375	38,31															
04:02:56.952	COM8_115200	2000-0-0 5:58:42.560	0,618	0,736	1,700	59,326	-11,475	26,428	26,098	-17,238	82,886	-48,158	62,258	41,300	35,12															
04:02:56.965	COM3_115200	2000-0-0 5:54:20.315	-0,578	0,722	1,510	50,842	19,470	-20,203	35,332	26,565	-43,550	31,675	-10,533	12,933	38,43															
04:02:56.980	COM8_115200	2000-0-0 5:58:42.580	0,655	0,707	1,662	50,110	-18,616	29,602	27,010	-17,770	83,249	-48,158	62,258	41,300	35,28															
04:02:56.985	COM3_115200	2000-0-0 5:54:20.335	-0,566	0,640	1,463	50,171	22,217	-29,968	36,096	27,158	-43,748	32,033	-9,800	14,442	38,43															
04:02:57.002	COM8_115200	2000-0-0 5:58:42.600	0,664	0,617	1,617	45,837	-24,658	26,611	27,757	-18,397	83,551	-48,158	62,258	41,300	35,22															
04:02:57.006	COM3_115200	2000-0-0 5:54:20.355	-0,597	0,609	1,421	45,593	21,912	-30,884	36,799	27,812	-43,967	32,408	-8,983	16,192	38,24															
04:02:57.018	COM8_115200	2000-0-0 5:58:42.620	0,708	0,628	1,610	49,133	-21,729	31,189	28,564	-19,122	83,886	-48,158	62,258	41,300	35,28															
04:02:57.028	COM3_115200	2000-0-0 5:54:20.375	-0,618	0,655	1,470	46,814	36,072	-28,809	37,529	28,537	-44,066	32,850	-8,158	17,850	38,37															
04:02:57.036	COM8_115200	2000-0-0 5:58:42.640	0,668	0,690	1,601	49,500	-20,630	31,555	29,383	-19,770	84,232	-48,158	62,258	41,300	35,28															
04:02:57.045	COM3_115200	2000-0-0 5:54:20.395	-0,566	0,569	1,458	33,325	28,015	-30,396	38,051	29,262	-44,264	33,283	-7,308	19,383	38,31															
04:02:57.052	COM8_115200	2000-0-0 5:58:42.660	0,685	0,643	1,580	35,645	-17,090	27,161	29,965	-20,358	84,567	-48,158	62,258	41,300	35,28															
04:02:57.066	COM3_115200	2000-0-0 5:54:20.415	-0,595	0,511	1,420	38,818	15,747	-33,386	38,513	29,905	-44,517	33,675	-6,358	20,933	38,43															
04:02:57.084	COM3_115200	2000-0-0 5:54:20.435	-0,687	0,565	1,374	42,542	25,146	-24,475	39,012	30,399	-44,736	34,142	-5,433	22,283	38,37															
04:02:57.097	COM8_115200	2000-0-0 5:58:42.680	0,630	0,553	1,536	30,762	-8,057	26,855	30,366	-20,841	84,968	-48,158	62,258	41,300	35,18															
04:02:57.114	COM3_115200	2000-0-0 5:54:20.455	-0,558	0,577	1,429	29,053	19,104	-31,067	39,391	31,014	-44,984	34,617	-4,558	23,658	38,18															
04:02:57.120	COM8_115200	2000-0-0 5:58:42.700	0,667	0,609	1,536	38,757	-4,395	28,442	30,872	-21,220	85,375	-48,158	62,258	41,300	35,15															
04:02:57.121	COM8_115200	2000-0-0 5:58:42.720	0,704	0,633	1,547	36,621	4,333	23,560	31,311	-21,423	85,842	-48,158	62,258	41,300	35,18															
04:02:57.127	COM3_115200	2000-0-0 5:54:20.475	-0,592	0,489	1,377	33,325	13,000	-24,353	39,677	31,470	-45,247	35,133	-3,650	24,975	38,18															
04:02:57.145	COM3_115200	2000-0-0 5:54:20.495	-0,660	0,462	1,327	37,354	14,282	-9,705	40,100	31,701	-45,374	35,567	-2,808	26,042	38,37															
04:02:57.164	COM3_115200	2000-0-0 5:54:20.515	-0,634	0,528	1,304	33,264	1,770	-24,475	40,463	31,943	-45,681	35,925	-1,892	26,983	38,24															
04:02:57.175	COM8_115200	2000-0-0 5:58:42.740	0,688	0,600	1,536	26,123	8,240	20,508	31,591	-21,522	86,358	-48,158	62,258	41,300	35,22															
04:02:57.180	COM8_115200	2000-0-0 5:58:42.760	0,693	0,578	1,539	29,053	10,437	22,705	31,866	-21,616	86,858	-48,158	62,258	41,300	35,28															
04:02:57.187	COM3_115200	2000-0-0 5:54:20.535	-0,583	0,525	1,365	28,381	2,991	-16,479	40,677	32,146	-45,967	36,250	-1,075	28,050	38,37															
04:02:57.205	COM3_115200	2000-0-0 5:54:20.555	-0,641	0,439	1,354	23,926	2,930	-12,207	40,776	32,261	-46,263	36,575	-0,342	29,042	38,31															
04:02:57.210	COM8_115200	2000-0-0 5:58:42.780	0,729	0,594	1,548	32,959	11,475	20,020	32,179	-21,632	87,330	-48,158	62,258	41,300	35,28															
04:02:57.221	COM8_115200	2000-0-0 5:58:42.800	0,718	0,583	1,522	25,879	15,259	15,442	32,426	-21,577	87,841	-48,158	62,258	41,300	35,15															
04:02:57.225	COM8_115200	2000-0-0 5:58:42.820	0,676	0,546	1,556	21,179	19,226	20,996	32,569	-21,522	88,407	-48,158	62,258	41,300	35,31															
04:02:57.250	COM3_115200	2000-0-0 5:54:20.575	-0,734	0,451	1,307	32,776	-9,277	-10,620	40,908	32,190	-46,631	36,925	0,375	29,933	38,31															
04:02:57.261	COM8_115200	2000-0-0 5:58:42.840	0,736	0,554	1,554	25,818	23,071	20,874	32,701	-21,368	88,967	-48,158	62,258	41,300	35,22															
04:02:57.277	COM3_115200	2000-0-0 5:54:20.595	-0,614	0,572	1,365	22,522	-9,277	-12,634	41,039	32,151	-46,928	37,317	1,100	30,667	38,43															
04:02:57.289	COM8_115200	2000-0-0 5:58:42.860	0,758	0,583	1,545	26,855	23,315	11,658	32,871	-21,116	89,522	-48,158	62,258	41,300	35,28															
04:02:57.302	COM3_115200	2000-0-0 5:54:20.615	-0,636	0,474	1,338	15,015	-4,761	-12,878	40,919	32,119	-47,302	37,708	1,725	31,258	38,31															
04:02:57.324	COM8_115200	2000-0-0 5:58:42.880	0,721	0,577	1,556	19,531	18,005	14,404	33,030	-20,962	90,011	-48,158	62,258	41,300	35,15															
04:02:57.327	COM8_115200	2000-0-0 5:58:42.900	0,795	0,509	1,491	19,409	26,123	13,794	33,047	-20,781	90,538	-48,158	62,258	41,300	35,22															
04:02:57.333	COM8_115200	2000-0-0 5:58:42.920	0,868	0,597	1,511	33,386	20,264	9,155	33,316	-20,555	90,978	-48,158	62,258	41,300	35,09															
04:02:57.334	COM8_115200	2000-0-0 5:58:42.940	0,872	0,723	1,497	36,621	6,226	5,310	33,821	-20,484	91,208	-48,158	62,258	41,300	35,22															
04:02:57.338	COM3_115200	2000-0-0 5:54:20.635	-0,662	0,435	1,310	15,564	-11,047	-14,648	40,759	32,053	-47,769	38,108	2,300	31,850	38,31															
04:02:57.343	COM3_115200	2000-0-0 5:54:20.655	-0,764	0,473	1,314	17,578	-4,639	-3,967	40,666	31,954	-48,093	38,442	2,825	32,233	38,31															
04:02:57.347	COM3_115200	2000-0-0 5:54:20.675	-0,749	0,651	1,258	18,494	-7,935	-7,568	40,699	31,866	-48,285	38,833	3,317	32,617	38,37															
04:02:57.351	COM3_115200	2000-0-0 5:54:20.695	-0,730	0,663	1,255	4,456	2,014	-0,305	40,600	31,761	-48,477	39,167	3,750	33,025	38,31															
04:02:57.353	COM8_115200	2000-0-0 5:58:42.960	0,843	0,708	1,460	15,076	-11,414	7,324	34,140	-20,671	91,258	-48,158	62,258	41,300	35,03															
04:02:57.371	COM3_115200	2000-0-0 5:54:20.715	-0,620	0,459	1,324	-4,089	19,409	-7,263	40,386	31,943	-48,362	39,442	4,108	33,275	38,31															
04:02:57.373	COM8_115200	2000-0-0 5:58:42.980	0,753	0,542	1,509	12,695	-14,343	7,324	34,261	-21,061	91,241	-48,158	62,258	41,300	35,18															
04:02:57.384	COM3_115200	2000-0-0 5:54:20.735	-0,496	0,362	1,417	3,235	20,874	-3,174	40,298	32,261	-48,142	39,667	4,392	33,650	38,31															
04:02:57.392	COM8_115200	2000-0-0 5:58:43.000	0,667	0,422	1,563	8,301	-15,991	14,099	34,288	-21,489	91,252	-48,158	62,258	41,300	35,18															
04:02:57.407	COM3_115200	2000-0-0 5:54:20.755	-0,700	0,327	1,351	4,944	12,390	-1,038	40,210	32,393	-48,016	39,742	4,558	33,867	38,31															
04:02:57.424	COM8_115200	2000-0-0 5:58:43.020	0,712	0,354	1,596	11,169	-8,545	11,292	34,261	-21,852	91,340	-48,158	62,258	41,300	35,12															
04:02:57.428	COM3_115200	2000-0-0 5:54:20.775	-0,548	0,394	1,473	1,221	1,587	-15,259	40,012	32,542	-48,060	39,667	4,708	34,192	38,31															
04:02:57.444	COM8_115200	2000-0-0 5:58:43.040	0,686	0,393	1,581	8,667	-0,549	13,428	34,189	-22,083	91,577	-48,158	62,258	41,300	35,15															
04:02:57.448	COM3_115200	2000-0-0 5:54:20.795	-0,523	0,346	1,420	1,892	11,902	-4,822	39,666	32,624	-48,208	39,642	4,958	34,350	38,31															
04:02:57.454	COM8_115200	2000-0-0 5:58:43.060	0,673	0,411	1,574	1,648	9,888	16,052	33,970	-22,187	91,934	-48,158	62,258	41,300	35,15															
04:02:57.466	COM3_115200	2000-0-0 5:54:20.815	-0,639	0,424	1,391	7,019	6,592	-11,169	39,512	32,789	-48,241	39,667	5,183	34,325	38,43															
04:02:57.473	COM8_115200	2000-0-0 5:58:43.080	0,788	0,427	1,561	10,254	19,897	15,137	33,690	-22,094	92,406	-48,158	62,258	41,300	35,25															
04:02:57.492	COM3_115200	2000-0-0 5:54:20.835	-0,615	0,434	1,313	6,714	-5,432	-12,573	39,243	32,805	-48,516	39,683	5,425	34,700	38,43															
04:02:57.498	COM8_115200	2000-0-0 5:58:43.100	0,755	0,484	1,553	3,601	23,560	12,207	33,431	-21,879	92,961	-48,158	62,258	41,300	35,25															
04:02:57.503	COM3_115200	2000-0-0 5:54:20.855	-0,702	0,454	1,292	11,841	-3,113	-8,179	39,018	32,767	-48,796	39,842	5,683	34,883	38,31															
04:02:57.512	COM8_115200	2000-0-0 5:58:43.120	0,776	0,500	1,566	12,634	15,869	17,883	33,239	-21,824	93,395	-48,158	62,258	41,300	35,06															
04:02:57.525	COM3_115200	2000-0-0 5:54:20.875	-0,654	0,547	1,285	14,526	-7,507	-8,301	38,925	32,657	-49,087	40,092	5,950	34,958	38,24															
04:02:57.533	COM8_115200	2000-0-0 5:58:43.140	0,828	0,567	1,529	15,747	7,446	8,911	33,256	-21,791	93,680	-48,158	62,258	41,300	35,09															
04:02:57.546	COM3_115200	2000-0-0 5:54:20.895	-0,615	0,509	1,238	12,207	5,310	-5,188	38,864	32,651	-49,224	40,333	6,250	35,250	38,43															
04:02:57.554	COM8_115200	2000-0-0 5:58:43.160	0,813	0,519	1,542	11,658	0,305	6,470	33,261	-21,852	93,862	-48,158	62,258	41,300	35,06															
04:02:57.566	COM3_115200	2000-0-0 5:54:20.915	-0,753	0,443	1,234	16,541	12,634	3,601	39,007	32,717	-49,081	40,508	6,625	35,517	38,31															
04:02:57.581	COM8_115200	2000-0-0 5:58:43.180	0,877	0,481	1,537	19,653	-4,761	6,226	33,371	-22,044	93,939	-48,158	62,258	41,300	35,22															
04:02:57.585	COM3_115200	2000-0-0 5:54:20.935	-0,677	0,516	1,227	18,921	2,136	3,357	39,227	32,684	-48,972	40,633	6,933	35,742	38,37															
04:02:57.601	COM8_115200	2000-0-0 5:58:43.200	0,794	0,501	1,521	19,165	-8,362	4,028	33,602	-22,242	93,944	-48,158	62,258	41,300	35,18															
04:02:57.605	COM3_115200	2000-0-0 5:54:20.955	-0,671	0,489	1,273	16,602	6,104	6,958	39,441	32,602	-48,796	40,600	7,225	35,992	38,43															
04:02:57.616	COM8_115200	2000-0-0 5:58:43.220	0,798	0,449	1,540	16,357	-17,761	2,075	33,799	-22,560	93,812	-48,158	62,258	41,300	35,22															
04:02:57.655	COM8_115200	2000-0-0 5:58:43.240	0,768	0,401	1,534	13,611	-16,968	0,732	33,981	-22,912	93,615	-48,158	62,258	41,300	35,18															
04:02:57.656	COM8_115200	2000-0-0 5:58:43.260	0,742	0,381	1,551	11,841	-11,414	1,038	34,091	-23,187	93,461	-48,158	62,258	41,300	35,22															
04:02:57.661	COM3_115200	2000-0-0 5:54:20.975	-0,559	0,403	1,281	13,916	9,033	5,737	39,595	32,569	-48,620	40,525	7,425	36,358	38,37															
04:02:57.673	COM8_115200	2000-0-0 5:58:43.280	0,775	0,357	1,548	4,517	-7,690	2,808	34,025	-23,395	93,422	-48,158	62,258	41,300	35,15															
04:02:57.675	COM3_115200	2000-0-0 5:54:20.995	-0,611	0,348	1,292	13,916	8,057	7,385	39,776	32,525	-48,378	40,392	7,683	36,758	38,43															
04:02:57.677	COM3_115200	2000-0-0 5:54:21.015	-0,641	0,364	1,324	13,611	-2,014	5,127	39,886	32,388	-48,246	40,150	7,967	37,217	38,37															
04:02:57.684	COM3_115200	2000-0-0 5:54:21.035	-0,498	0,355	1,368	10,071	-12,756	1,465	39,776	32,130	-48,389	39,950	8,183	37,433	38,43															
04:02:57.693	COM8_115200	2000-0-0 5:58:43.300	0,711	0,363	1,545	3,235	1,526	4,822	33,887	-23,511	93,483	-48,158	62,258	41,300	35,31															
04:02:57.704	COM3_115200	2000-0-0 5:54:21.055	-0,572	0,335	1,372	10,376	-11,292	2,380	39,644	31,822	-48,532	39,808	8,283	37,658	38,37															
04:02:57.723	COM3_115200	2000-0-0 5:54:21.075	-0,616	0,354	1,359	9,827	-14,404	0,549	39,441	31,503	-48,774	39,858	8,450	37,900	38,43															
04:02:57.732	COM8_115200	2000-0-0 5:58:43.320	0,724	0,366	1,550	2,502	3,479	5,981	33,668	-23,544	93,593	-48,158	62,258	41,300	35,28															
04:02:57.733	COM8_115200	2000-0-0 5:58:43.340	0,760	0,375	1,534	-0,244	10,010	5,005	33,365	-23,494	93,812	-48,158	62,258	41,300	35,31															
04:02:57.753	COM8_115200	2000-0-0 5:58:43.360	0,763	0,424	1,542	0,000	18,372	7,324	33,047	-23,351	94,114	-48,158	62,258	41,300	35,25															
04:02:57.772	COM8_115200	2000-0-0 5:58:43.380	0,761	0,425	1,533	-1,709	15,991	7,202	32,662	-23,154	94,438	-48,158	62,258	41,300	35,18															
04:02:57.777	COM3_115200	2000-0-0 5:54:21.095	-0,624	0,383	1,354	8,789	-16,174	-0,305	39,194	31,157	-49,070	40,008	8,567	38,033	38,31															
04:02:57.780	COM3_115200	2000-0-0 5:54:21.115	-0,626	0,435	1,368	8,423	-15,625	-2,625	38,969	30,844	-49,329	40,167	8,650	38,167	38,37															
04:02:57.784	COM3_115200	2000-0-0 5:54:21.135	-0,588	0,400	1,355	6,348	-13,855	-2,808	38,677	30,569	-49,625	40,375	8,800	38,242	38,31															
04:02:57.795	COM8_115200	2000-0-0 5:58:43.400	0,719	0,420	1,563	-2,014	10,986	8,240	32,316	-23,055	94,735	-48,158	62,258	41,300	35,25															
04:02:57.813	COM8_115200	2000-0-0 5:58:43.420	0,791	0,392	1,584	2,869	7,080	9,216	32,009	-23,033	95,004	-48,158	62,258	41,300	35,22															
04:02:57.819	COM3_115200	2000-0-0 5:54:21.155	-0,618	0,359	1,353	11,475	-12,756	-4,700	38,452	30,339	-49,916	40,667	9,008	38,083	38,37															
04:02:57.827	COM3_115200	2000-0-0 5:54:21.175	-0,648	0,394	1,363	14,221	-8,728	-5,981	38,331	30,174	-50,147	40,883	9,258	37,975	38,31															
04:02:57.836	COM8_115200	2000-0-0 5:58:43.440	0,778	0,415	1,551	5,920	7,202	10,986	31,794	-23,049	95,290	-48,158	62,258	41,300	35,25															
04:02:57.853	COM8_115200	2000-0-0 5:58:43.460	0,727	0,427	1,558	10,071	3,296	12,817	31,674	-23,126	95,565	-48,158	62,258	41,300	35,00															
04:02:57.866	COM3_115200	2000-0-0 5:54:21.195	-0,651	0,438	1,369	16,174	-3,540	-5,676	38,276	30,081	-50,350	41,175	9,458	37,908	38,37															
04:02:57.869	COM3_115200	2000-0-0 5:54:21.215	-0,609	0,390	1,411	16,113	-1,160	-10,620	38,227	30,075	-50,559	41,475	9,683	37,933	38,37															
04:02:57.902	COM8_115200	2000-0-0 5:58:43.480	0,749	0,381	1,559	12,451	-1,465	13,245	31,580	-23,291	95,812	-48,158	62,258	41,300	35,22															
04:02:57.903	COM8_115200	2000-0-0 5:58:43.500	0,724	0,368	1,558	11,841	-0,854	16,052	31,536	-23,483	96,103	-48,158	62,258	41,300	35,22															
04:02:57.907	COM3_115200	2000-0-0 5:54:21.235	-0,586	0,321	1,431	23,071	3,296	-13,977	38,276	30,190	-50,762	41,742	10,075	38,108	38,37															
04:02:57.911	COM3_115200	2000-0-0 5:54:21.255	-0,750	0,325	1,413	32,349	19,958	-9,766	38,562	30,443	-50,801	41,967	10,517	38,425	38,37															
04:02:57.913	COM8_115200	2000-0-0 5:58:43.520	0,748	0,391	1,550	19,470	1,404	19,958	31,569	-23,703	96,443	-48,158	62,258	41,300	35,18															
04:02:57.926	COM3_115200	2000-0-0 5:54:21.275	-0,601	0,392	1,426	36,621	17,273	-17,822	38,974	30,872	-50,817	42,142	11,058	38,983	38,37															
04:02:57.934	COM8_115200	2000-0-0 5:58:43.540	0,733	0,423	1,540	20,569	4,883	20,386	31,613	-23,846	96,861	-48,158	62,258	41,300	35,22															
04:02:57.943	COM3_115200	2000-0-0 5:54:21.295	-0,521	0,370	1,384	46,265	24,780	-12,756	39,534	31,267	-50,828	42,167	11,792	39,575	38,37															
04:02:57.954	COM8_115200	2000-0-0 5:58:43.560	0,730	0,344	1,607	18,005	4,822	26,428	31,558	-24,077	97,311	-48,158	62,258	41,300	34,96															
04:02:57.964	COM3_115200	2000-0-0 5:54:21.315	-0,608	0,271	1,358	48,218	26,428	-16,602	40,254	31,811	-50,691	42,150	12,633	40,283	38,31															
04:02:57.982	COM8_115200	2000-0-0 5:58:43.580	0,760	0,379	1,572	30,701	-0,366	21,912	31,712	-24,296	97,756	-48,158	62,258	41,300	35,22															
04:02:57.986	COM3_115200	2000-0-0 5:54:21.335	-0,625	0,276	1,268	50,842	19,592	-17,334	40,924	32,267	-50,707	42,142	13,600	41,267	38,43															
04:02:58.011	COM8_115200	2000-0-0 5:58:43.600	0,797	0,382	1,588	22,766	-5,310	23,621	31,871	-24,571	98,185	-48,158	62,258	41,300	35,28															
04:02:58.013	COM3_115200	2000-0-0 5:54:21.355	-0,550	0,350	1,356	48,462	28,564	-19,775	41,633	32,805	-50,685	42,067	14,708	42,142	38,31															
04:02:58.033	COM3_115200	2000-0-0 5:54:21.375	-0,590	0,285	1,296	43,945	19,897	-17,639	42,204	33,305	-50,680	41,883	15,925	43,217	38,31															
04:02:58.041	COM8_115200	2000-0-0 5:58:43.620	0,755	0,334	1,570	29,602	-3,113	21,118	32,058	-24,862	98,597	-48,158	62,258	41,300	35,06															
04:02:58.042	COM8_115200	2000-0-0 5:58:43.640	0,850	0,297	1,495	30,701	-6,348	18,738	32,256	-25,170	98,981	-48,158	62,258	41,300	35,22															
04:02:58.046	COM3_115200	2000-0-0 5:54:21.395	-0,602	0,233	1,249	45,044	4,822	-23,682	42,643	33,646	-50,933	41,767	17,208	44,267	38,37															
04:02:58.053	COM8_115200	2000-0-0 5:58:43.660	0,789	0,331	1,562	33,508	4,822	21,606	32,542	-25,373	99,426	-48,158	62,258	41,300	35,18															
04:02:58.063	COM3_115200	2000-0-0 5:54:21.415	-0,673	0,251	1,219	45,593	12,451	-19,592	43,044	33,926	-51,240	41,808	18,483	45,242	38,24															
04:02:58.091	COM3_115200	2000-0-0 5:54:21.435	-0,649	0,317	1,179	40,955	5,676	-21,484	43,385	34,244	-51,542	41,867	19,842	46,158	38,24															
04:02:58.095	COM8_115200	2000-0-0 5:58:43.680	0,862	0,305	1,542	32,715	7,874	22,949	32,706	-25,527	99,932	-48,158	62,258	41,300	35,15															
04:02:58.096	COM8_115200	2000-0-0 5:58:43.700	0,882	0,329	1,481	34,058	7,019	21,545	32,926	-25,637	100,426	-48,158	62,258	41,300	35,15															
04:02:58.102	COM3_115200	2000-0-0 5:54:21.455	-0,673	0,279	1,123	35,156	4,150	-16,968	43,627	34,442	-51,850	42,008	21,150	47,058	38,31															
04:02:58.113	COM8_115200	2000-0-0 5:58:43.720	0,906	0,305	1,438	30,884	-2,014	16,602	33,157	-25,812	100,816	-48,158	62,258	41,300	35,15															
04:02:58.123	COM3_115200	2000-0-0 5:54:21.475	-0,738	0,227	1,059	32,410	2,808	-16,235	43,781	34,629	-52,130	42,150	22,400	47,908	38,31															
04:02:58.141	COM8_115200	2000-0-0 5:58:43.740	1,008	0,338	1,425	40,771	-0,244	11,047	33,563	-26,005	101,096	-48,158	62,258	41,300	35,09															
04:02:58.154	COM8_115200	2000-0-0 5:58:43.760	1,037	0,374	1,365	35,339	-1,892	10,071	33,975	-26,169	101,305	-48,158	62,258	41,300	35,25															
04:02:58.159	COM3_115200	2000-0-0 5:54:21.495	-0,771	0,234	0,996	29,846	-0,671	-8,850	43,885	34,717	-52,399	42,333	23,608	48,633	38,43															
04:02:58.163	COM3_115200	2000-0-0 5:54:21.515	-0,800	0,265	0,990	23,987	7,385	-1,709	44,044	34,772	-52,449	42,525	24,675	49,283	38,43															
04:02:58.175	COM8_115200	2000-0-0 5:58:43.780	1,032	0,367	1,273	32,043	-17,395	2,380	34,398	-26,450	101,272	-48,158	62,258	41,300	35,25															
04:02:58.186	COM3_115200	2000-0-0 5:54:21.535	-0,790	0,243	0,920	14,587	17,700	7,141	44,171	34,887	-52,213	42,633	25,650	49,725	38,37															
04:02:58.204	COM8_115200	2000-0-0 5:58:43.800	1,037	0,351	1,229	20,813	-27,893	-5,127	34,838	-26,917	100,898	-48,158	62,258	41,300	35,28															
04:02:58.207	COM3_115200	2000-0-0 5:54:21.555	-0,769	0,213	0,931	6,653	28,015	12,695	44,357	35,063	-51,625	42,550	26,342	50,308	38,31															
04:02:58.229	COM3_115200	2000-0-0 5:54:21.575	-0,744	0,175	0,938	-3,479	29,541	21,484	44,451	35,228	-50,845	42,275	26,742	50,808	38,37															
04:02:58.230	COM8_115200	2000-0-0 5:58:43.820	1,101	0,291	1,231	9,155	-21,057	-15,320	35,074	-27,241	100,410	-48,158	62,258	41,300	35,25															
04:02:58.241	COM8_115200	2000-0-0 5:58:43.840	1,050	0,256	1,231	0,122	-18,127	-23,987	35,184	-27,405	99,778	-48,158	62,258	41,300	35,15															
04:02:58.253	COM3_115200	2000-0-0 5:54:21.595	-0,750	0,156	0,909	-11,536	14,587	28,320	44,396	35,156	-50,032	41,700	26,933	51,342	38,37															
04:02:58.258	COM8_115200	2000-0-0 5:58:43.860	1,042	0,218	1,232	-11,902	-9,949	-31,860	35,112	-27,389	99,064	-48,158	62,258	41,300	35,22															
04:02:58.263	COM3_115200	2000-0-0 5:54:21.615	-0,670	0,145	0,922	-24,475	3,540	33,203	44,017	34,838	-49,378	41,033	26,775	51,808	38,37															
04:02:58.274	COM8_115200	2000-0-0 5:58:43.880	0,980	0,204	1,225	-19,104	-5,127	-44,556	34,893	-27,147	98,251	-48,158	62,258	41,300	35,12															
04:02:58.285	COM3_115200	2000-0-0 5:54:21.635	-0,709	0,158	0,936	-37,903	-2,441	42,053	43,369	34,316	-48,746	40,308	26,325	51,933	38,37															
04:02:58.302	COM8_115200	2000-0-0 5:58:43.900	0,958	0,230	1,236	-29,053	6,287	-51,208	34,541	-26,702	97,311	-48,158	62,258	41,300	35,22															
04:02:58.306	COM3_115200	2000-0-0 5:54:21.655	-0,660	0,182	0,957	-49,988	-18,860	45,593	42,402	33,536	-48,192	39,675	25,583	51,900	38,37															
04:02:58.322	COM8_115200	2000-0-0 5:58:43.920	0,976	0,262	1,287	-43,701	18,433	-64,331	33,970	-25,895	96,328	-48,158	62,258	41,300	35,15															
04:02:58.326	COM3_115200	2000-0-0 5:54:21.675	-0,651	0,190	0,976	-61,584	-25,024	52,979	41,188	32,552	-47,659	39,083	24,492	51,508	38,43															
04:02:58.335	COM8_115200	2000-0-0 5:58:43.940	0,968	0,272	1,299	-55,054	33,020	-73,608	33,096	-24,796	95,378	-48,158	62,258	41,300	35,25															
04:02:58.344	COM3_115200	2000-0-0 5:54:21.695	-0,701	0,245	0,930	-70,801	-33,813	59,937	39,792	31,404	-47,076	38,533	22,933	50,900	38,24															
04:02:58.382	COM8_115200	2000-0-0 5:58:43.960	0,952	0,335	1,322	-57,861	41,504	-82,214	32,113	-23,428	94,367	-48,158	62,258	41,300	35,09															
04:02:58.383	COM8_115200	2000-0-0 5:58:43.980	0,894	0,422	1,335	-65,613	42,908	-90,210	31,091	-21,940	93,203	-48,158	62,258	41,300	35,09															
04:02:58.387	COM3_115200	2000-0-0 5:54:21.715	-0,652	0,327	0,959	-83,984	-43,640	65,491	38,216	30,064	-46,461	38,108	21,050	49,883	38,50															
04:02:58.406	COM8_115200	2000-0-0 5:58:44.000	0,900	0,448	1,415	-72,205	35,828	-93,811	29,987	-20,511	91,818	-48,158	62,258	41,300	35,06															
04:02:58.407	COM3_115200	2000-0-0 5:54:21.735	-0,679	0,340	1,065	-90,149	-50,171	76,294	36,469	28,466	-45,797	37,667	18,833	48,342	38,43															
04:02:58.409	COM3_115200	2000-0-0 5:54:21.755	-0,664	0,386	1,101	-91,980	-51,575	75,745	34,700	26,774	-45,099	37,175	16,367	46,600	38,12															
04:02:58.419	COM8_115200	2000-0-0 5:58:44.020	0,853	0,477	1,446	-77,148	33,508	-100,830	28,779	-19,111	90,335	-48,158	62,258	41,300	35,28															
04:02:58.424	COM3_115200	2000-0-0 5:54:21.775	-0,546	0,431	1,141	-95,215	-40,771	79,346	32,975	25,252	-44,187	36,625	13,608	44,625	38,31															
04:02:58.435	COM8_115200	2000-0-0 5:58:44.040	0,777	0,489	1,509	-80,872	34,424	-103,333	27,526	-17,710	88,731	-48,158	62,258	41,300	35,18															
04:02:58.445	COM3_115200	2000-0-0 5:54:21.795	-0,562	0,423	1,188	-101,135	-36,560	92,224	31,328	23,769	-42,935	35,933	10,917	42,417	38,37															
04:02:58.468	COM8_115200	2000-0-0 5:58:44.060	0,718	0,490	1,547	-84,290	32,654	-103,455	26,208	-16,359	87,061	-48,158	62,258	41,300	35,28															
04:02:58.472	COM3_115200	2000-0-0 5:54:21.815	-0,605	0,418	1,297	-101,196	-41,504	90,881	29,614	22,214	-41,616	35,033	7,983	40,092	38,24															
04:02:58.474	COM8_115200	2000-0-0 5:58:44.080	0,689	0,523	1,623	-81,604	26,611	-101,379	24,911	-15,128	85,314	-48,158	62,258	41,300	35,15															
04:02:58.489	COM3_115200	2000-0-0 5:54:21.835	-0,299	0,396	1,464	-95,032	-29,724	79,956	27,933	20,852	-40,391	33,875	5,158	37,525	38,37															
04:02:58.494	COM8_115200	2000-0-0 5:58:44.100	0,550	0,530	1,662	-88,318	17,761	-101,868	23,527	-14,063	83,562	-48,158	62,258	41,300	35,18															
04:02:58.503	COM3_115200	2000-0-0 5:54:21.855	-0,434	0,434	1,506	-92,712	-16,541	93,872	26,444	19,764	-38,809	32,550	2,492	35,075	38,31															
04:02:58.537	COM8_115200	2000-0-0 5:58:44.120	0,447	0,431	1,726	-98,755	8,301	-93,994	21,951	-13,239	81,771	-48,158	62,258	41,300	35,06															
04:02:58.549	COM8_115200	2000-0-0 5:58:44.140	0,588	0,413	1,817	-86,182	11,902	-88,867	20,402	-12,524	80,057	-48,158	62,258	41,300	35,15															
04:02:58.553	COM3_115200	2000-0-0 5:54:21.875	-0,441	0,414	1,533	-90,454	-30,273	79,285	24,961	18,583	-37,375	31,042	-0,117	32,308	38,31															
04:02:58.556	COM8_115200	2000-0-0 5:58:44.160	0,518	0,528	1,824	-76,904	16,541	-77,148	19,078	-11,805	78,536	-48,158	62,258	41,300	35,18															
04:02:58.557	COM3_115200	2000-0-0 5:54:21.895	-0,460	0,479	1,545	-88,440	-35,278	71,411	23,417	17,391	-36,238	29,350	-2,633	29,508	38,31															
04:02:58.566	COM3_115200	2000-0-0 5:54:21.915	-0,460	0,522	1,621	-87,219	-46,204	63,538	21,846	16,133	-35,217	27,717	-4,975	26,825	38,31															
04:02:58.575	COM8_115200	2000-0-0 5:58:44.180	0,455	0,551	1,896	-87,219	27,954	-66,528	17,639	-11,041	77,245	-48,158	62,258	41,300	35,18															
04:02:58.586	COM3_115200	2000-0-0 5:54:21.935	-0,240	0,488	1,765	-75,012	-41,504	58,838	20,418	14,925	-34,349	26,167	-7,033	24,275	38,43															
04:02:58.603	COM8_115200	2000-0-0 5:58:44.200	0,465	0,491	1,912	-81,055	30,701	-60,852	16,095	-10,217	76,097	-48,158	62,258	41,300	35,25															
04:02:58.608	COM3_115200	2000-0-0 5:54:21.955	-0,400	0,571	1,691	-73,181	-32,959	54,626	19,144	13,881	-33,404	24,683	-8,858	21,650	38,37															
04:02:58.626	COM8_115200	2000-0-0 5:58:44.220	0,497	0,625	1,860	-43,823	7,568	-57,068	15,117	-9,646	74,987	-48,158	62,258	41,300	35,28															
04:02:58.629	COM3_115200	2000-0-0 5:54:21.975	-0,529	0,664	1,644	-59,265	-32,593	38,574	17,957	12,953	-32,728	23,350	-10,550	18,992	38,37															
04:02:58.636	COM8_115200	2000-0-0 5:58:44.240	0,340	0,735	1,819	-41,992	-15,503	-44,678	14,507	-9,673	73,943	-48,158	62,258	41,300	35,28															
04:02:58.646	COM3_115200	2000-0-0 5:54:21.995	-0,390	0,834	1,714	-58,777	-20,630	38,513	16,913	12,233	-32,157	22,133	-11,950	16,625	38,18															
04:02:58.660	COM8_115200	2000-0-0 5:58:44.260	0,413	0,660	1,851	-50,110	-18,433	-42,297	13,738	-9,877	72,944	-48,158	62,258	41,300	35,28															
04:02:58.666	COM3_115200	2000-0-0 5:54:22.015	-0,290	0,787	1,767	-61,890	21,301	37,842	15,892	12,184	-31,311	21,017	-13,158	14,450	38,37															
04:02:58.680	COM8_115200	2000-0-0 5:58:44.280	0,682	0,745	1,895	-21,851	-18,616	-32,715	13,233	-10,113	72,114	-48,158	62,258	41,300	35,25															
04:02:58.683	COM3_115200	2000-0-0 5:54:22.035	-0,500	0,682	1,614	-65,918	41,931	29,663	14,821	12,849	-30,366	19,875	-14,100	12,433	38,43															
04:02:58.695	COM8_115200	2000-0-0 5:58:44.300	0,486	0,838	1,893	-16,357	-24,353	-27,100	13,101	-10,453	71,400	-48,158	62,258	41,300	35,12															
04:02:58.707	COM3_115200	2000-0-0 5:54:22.055	-0,397	0,743	1,595	-46,204	26,245	17,212	13,980	13,359	-29,729	18,725	-14,975	10,717	38,37															
04:02:58.737	COM8_115200	2000-0-0 5:58:44.320	0,436	0,875	1,883	-14,160	-41,138	-18,494	12,980	-11,118	70,703	-48,158	62,258	41,300	35,28															
04:02:58.745	COM3_115200	2000-0-0 5:54:22.075	-0,298	0,912	1,840	-47,485	51,025	25,085	13,337	13,991	-29,042	17,733	-15,758	9,208	38,31															
04:02:58.771	COM8_115200	2000-0-0 5:58:44.340	0,423	0,918	1,851	-34,363	-62,744	-19,958	12,700	-12,162	69,994	-48,158	62,258	41,300	35,12															
04:02:58.773	COM8_115200	2000-0-0 5:58:44.360	0,741	0,846	1,801	-33,142	-58,289	-6,958	12,167	-13,332	69,428	-48,158	62,258	41,300	35,09															
04:02:58.774	COM8_115200	2000-0-0 5:58:44.380	0,354	0,961	1,960	-27,954	-64,880	-13,916	11,942	-14,507	68,901	-48,158	62,258	41,300	35,31															
04:02:58.778	COM3_115200	2000-0-0 5:54:22.095	-0,397	0,868	1,745	-66,650	90,637	26,001	12,524	15,331	-28,098	16,775	-16,383	7,858	38,31															
04:02:58.795	COM3_115200	2000-0-0 5:54:22.115	-0,398	0,762	1,769	-53,406	94,543	-1,831	11,662	17,106	-27,422	15,767	-16,900	6,625	38,24															
04:02:58.799	COM3_115200	2000-0-0 5:54:22.135	-0,521	0,871	1,596	-53,833	69,519	-2,441	10,756	18,611	-27,109	14,783	-17,383	5,517	38,43															
04:02:58.803	COM3_115200	2000-0-0 5:54:22.155	-0,401	0,986	1,746	-58,899	80,139	6,409	9,992	19,979	-26,724	14,158	-17,708	4,425	38,37															
04:02:58.821	COM3_115200	2000-0-0 5:54:22.175	-0,422	0,719	1,768	-99,304	98,694	-2,563	8,674	21,791	-26,323	13,625	-18,000	3,425	38,43															
04:02:58.848	COM3_115200	2000-0-0 5:54:22.195	-0,519	0,706	1,755	-58,777	54,565	0,854	7,498	23,143	-25,999	13,233	-18,292	2,250	38,31															
04:02:58.864	COM3_115200	2000-0-0 5:54:22.215	-0,447	0,940	1,643	-44,373	26,062	9,888	6,866	23,648	-25,708	12,958	-18,550	1,100	38,31															
04:02:58.880	COM3_115200	2000-0-0 5:54:22.235	-0,354	0,979	1,771	-61,707	46,936	21,484	6,224	24,181	-25,175	12,708	-18,775	-0,017	38,18															
04:02:58.919	COM3_115200	2000-0-0 5:54:22.255	-0,487	0,749	1,878	-70,251	51,270	18,738	5,312	25,065	-24,500	12,425	-18,992	-1,392	38,37															
04:02:58.922	COM3_115200	2000-0-0 5:54:22.275	-0,479	0,791	1,781	-42,908	24,292	13,306	4,680	25,587	-24,038	12,050	-19,250	-2,767	38,37															
04:02:58.948	COM3_115200	2000-0-0 5:54:22.295	-0,353	0,861	1,803	-45,288	19,775	14,709	4,285	25,796	-23,571	11,592	-19,467	-4,092	38,31															
04:02:58.965	COM3_115200	2000-0-0 5:54:22.315	-0,396	0,747	1,788	-38,330	10,559	21,851	3,840	25,917	-23,016	11,150	-19,767	-5,167	38,37															
04:02:58.981	COM3_115200	2000-0-0 5:54:22.335	-0,280	0,824	1,840	-34,180	-3,784	15,747	3,625	25,774	-22,495	10,650	-19,917	-6,367	38,56															
04:02:59.002	COM3_115200	2000-0-0 5:54:22.355	-0,266	0,886	1,789	-27,344	-20,325	3,906	3,384	25,318	-22,220	10,108	-19,975	-7,425	38,37															
04:02:59.020	COM3_115200	2000-0-0 5:54:22.375	-0,307	0,936	1,835	-29,236	-30,579	8,118	3,109	24,571	-22,039	9,667	-20,033	-8,600	38,31															
04:02:59.046	COM3_115200	2000-0-0 5:54:22.395	-0,349	0,979	1,822	-38,452	-25,085	10,437	2,769	23,813	-21,780	9,217	-20,167	-9,717	38,37															
04:02:59.080	COM3_115200	2000-0-0 5:54:22.415	-0,327	0,914	1,803	-33,630	-14,343	5,371	2,401	23,307	-21,522	8,750	-20,242	-10,875	38,56															
04:02:59.087	COM3_115200	2000-0-0 5:54:22.435	-0,280	0,926	1,786	-26,428	9,155	-1,526	2,159	23,176	-21,390	8,375	-20,275	-12,192	38,43															
04:02:59.125	COM8_115200	2000-0-0 5:58:44.400	0,427	0,793	1,936	-67,810	-76,782	-12,756	11,129	-15,914	68,198	-48,158	62,258	41,300	35,18															
04:02:59.125	COM8_115200	2000-0-0 5:58:44.420	0,571	0,581	1,812	-14,221	-48,767	-13,367	10,552	-16,952	67,670	-48,158	62,258	41,300	35,03															
04:02:59.125	COM8_115200	2000-0-0 5:58:44.440	0,470	1,000	1,813	6,287	-41,870	-12,146	10,997	-17,803	67,159	-48,158	62,258	41,300	35,22															
04:02:59.125	COM8_115200	2000-0-0 5:58:44.460	0,490	0,776	1,835	-6,714	-18,982	-15,381	11,157	-18,248	66,638	-48,158	62,258	41,300	35,22															
04:02:59.125	COM8_115200	2000-0-0 5:58:44.480	0,421	0,791	1,867	-7,813	12,024	-22,095	11,360	-18,149	66,154	-48,158	62,258	41,300	35,15															
04:02:59.125	COM8_115200	2000-0-0 5:58:44.500	0,429	0,879	1,845	-5,432	30,762	-22,949	11,503	-17,534	65,720	-48,158	62,258	41,300	35,18															
04:02:59.125	COM8_115200	2000-0-0 5:58:44.520	0,426	0,824	1,845	-14,099	47,363	-30,884	11,508	-16,573	65,226	-48,158	62,258	41,300	35,06															
04:02:59.126	COM3_115200	2000-0-0 5:54:22.455	-0,370	0,814	1,870	-13,855	8,118	-4,761	1,994	23,220	-21,396	8,133	-20,242	-13,242	38,31															
04:02:59.150	COM8_115200	2000-0-0 5:58:44.540	0,404	0,787	1,859	-18,250	71,899	-32,349	11,442	-15,194	64,748	-48,158	62,258	41,300	35,18															
04:02:59.150	COM8_115200	2000-0-0 5:58:44.560	0,459	0,796	1,886	-5,676	96,741	-25,696	11,398	-13,321	64,506	-48,158	62,258	41,300	35,18															
04:02:59.150	COM8_115200	2000-0-0 5:58:44.580	0,384	0,931	1,914	-3,906	97,717	-30,579	11,503	-11,272	64,297	-48,158	62,258	41,300	35,37															
04:02:59.150	COM8_115200	2000-0-0 5:58:44.600	0,387	0,990	1,936	-6,897	79,529	-38,452	11,635	-9,476	63,918	-48,158	62,258	41,300	35,22															
04:02:59.150	COM8_115200	2000-0-0 5:58:44.620	0,407	0,856	1,921	-5,920	74,707	-40,466	11,711	-7,921	63,397	-48,158	62,258	41,300	35,25															
04:02:59.150	COM8_115200	2000-0-0 5:58:44.640	0,339	0,822	1,928	-8,240	84,900	-30,518	11,766	-6,246	63,001	-48,158	62,258	41,300	35,25															
04:02:59.150	COM3_115200	2000-0-0 5:54:22.475	-0,345	0,927	1,909	-15,747	11,414	-0,488	2,016	23,220	-21,330	7,992	-20,192	-14,192	38,37															
04:02:59.185	COM8_115200	2000-0-0 5:58:44.660	0,391	0,887	2,042	1,526	72,144	-26,611	11,882	-4,647	62,776	-48,158	62,258	41,300	35,18															
04:02:59.185	COM8_115200	2000-0-0 5:58:44.680	0,291	0,962	2,105	2,197	35,522	-28,809	12,101	-3,647	62,408	-48,158	62,258	41,300	35,28															
04:02:59.185	COM8_115200	2000-0-0 5:58:44.700	0,353	0,837	2,093	1,160	17,639	-17,090	12,288	-3,186	62,062	-48,158	62,258	41,300	35,09															
04:02:59.185	COM8_115200	2000-0-0 5:58:44.720	0,441	0,866	2,074	4,944	12,146	-0,732	12,475	-2,955	61,985	-48,158	62,258	41,300	35,22															
04:02:59.185	COM8_115200	2000-0-0 5:58:44.740	0,230	1,045	2,062	-4,761	-14,771	0,427	12,629	-3,104	61,990	-48,158	62,258	41,300	35,22															
04:02:59.187	COM3_115200	2000-0-0 5:54:22.495	-0,299	0,889	1,836	-19,409	23,865	-8,118	1,934	23,478	-21,292	7,908	-20,183	-14,775	38,37															
04:02:59.190	COM3_115200	2000-0-0 5:54:22.515	-0,414	0,860	1,890	-0,916	7,019	-9,949	1,956	23,615	-21,418	7,942	-20,083	-15,358	38,18															
04:02:59.194	COM3_115200	2000-0-0 5:54:22.535	-0,362	1,016	1,952	-3,052	12,390	-10,437	2,192	23,604	-21,555	8,242	-19,975	-15,725	38,31															
04:02:59.202	COM3_115200	2000-0-0 5:54:22.555	-0,346	0,945	1,930	-7,568	24,109	-7,935	2,280	23,862	-21,632	8,550	-19,917	-15,858	38,37															
04:02:59.219	COM3_115200	2000-0-0 5:54:22.575	-0,357	0,948	1,926	-8,179	33,081	-8,179	2,362	24,313	-21,671	8,967	-19,900	-15,883	38,31															
04:02:59.229	COM8_115200	2000-0-0 5:58:44.760	0,372	0,919	2,068	-3,052	-51,758	6,287	12,667	-3,966	61,886	-48,158	62,258	41,300	35,22															
04:02:59.229	COM8_115200	2000-0-0 5:58:44.780	0,427	0,885	1,964	7,324	-51,758	13,306	12,870	-5,142	61,826	-48,158	62,258	41,300	35,18															
04:02:59.229	COM8_115200	2000-0-0 5:58:44.800	0,331	0,971	1,956	15,259	-45,166	13,306	13,260	-6,158	61,853	-48,158	62,258	41,300	35,22															
04:02:59.229	COM8_115200	2000-0-0 5:58:44.820	0,368	0,938	1,967	18,799	-48,523	14,526	13,722	-7,180	61,891	-48,158	62,258	41,300	35,22															
04:02:59.248	COM8_115200	2000-0-0 5:58:44.840	0,340	0,921	1,906	15,259	-38,757	13,306	14,194	-8,113	61,902	-48,158	62,258	41,300	35,00															
04:02:59.252	COM3_115200	2000-0-0 5:54:22.595	-0,417	0,933	1,926	-0,671	29,785	-8,545	2,521	24,791	-21,731	9,383	-19,867	-15,933	38,37															
04:02:59.258	COM8_115200	2000-0-0 5:58:44.860	0,452	0,929	1,947	20,386	-14,832	14,832	14,661	-8,663	62,051	-48,158	62,258	41,300	35,31															
04:02:59.273	COM3_115200	2000-0-0 5:54:22.615	-0,403	0,936	1,947	5,249	27,405	-5,371	2,845	25,192	-21,736	9,858	-19,858	-15,833	38,37															
04:02:59.279	COM8_115200	2000-0-0 5:58:44.880	0,369	0,989	1,951	23,560	-13,977	11,658	15,205	-8,981	62,199	-48,158	62,258	41,300	35,22															
04:02:59.288	COM3_115200	2000-0-0 5:54:22.635	-0,333	0,893	1,909	9,644	27,649	-7,874	3,252	25,576	-21,747	10,317	-19,850	-15,658	38,43															
04:02:59.301	COM3_115200	2000-0-0 5:54:22.655	-0,403	0,876	1,839	17,273	14,526	-10,071	3,724	25,823	-21,846	10,750	-19,833	-15,300	38,37															
04:02:59.306	COM8_115200	2000-0-0 5:58:44.900	0,427	0,950	1,920	20,264	-12,939	8,362	15,732	-9,322	62,287	-48,158	62,258	41,300	35,15															
04:02:59.317	COM8_115200	2000-0-0 5:58:44.920	0,428	0,913	1,896	16,357	-2,380	6,836	16,188	-9,476	62,369	-48,158	62,258	41,300	35,15															
04:02:59.321	COM3_115200	2000-0-0 5:54:22.675	-0,379	0,935	1,869	14,709	11,902	-5,676	4,279	25,884	-21,890	11,208	-19,750	-14,967	38,24															
04:02:59.337	COM8_115200	2000-0-0 5:58:44.940	0,414	0,920	1,901	10,437	3,784	4,944	16,523	-9,492	62,457	-48,158	62,258	41,300	35,28															
04:02:59.342	COM3_115200	2000-0-0 5:54:22.695	-0,362	0,931	1,829	5,066	12,146	-0,977	4,708	25,966	-21,813	11,575	-19,625	-14,600	38,43															
04:02:59.358	COM8_115200	2000-0-0 5:58:44.960	0,403	0,938	1,872	5,432	6,226	-1,282	16,765	-9,410	62,474	-48,158	62,258	41,300	35,15															
04:02:59.362	COM3_115200	2000-0-0 5:54:22.715	-0,346	0,937	1,805	-0,916	7,568	-5,859	4,977	25,988	-21,769	11,942	-19,683	-14,425	38,43															
04:02:59.383	COM3_115200	2000-0-0 5:54:22.735	-0,390	0,925	1,781	0,488	-2,075	-8,240	5,180	25,873	-21,819	12,242	-19,725	-13,958	38,31															
04:02:59.390	COM8_115200	2000-0-0 5:58:44.980	0,436	0,897	1,852	5,066	11,597	-4,150	16,974	-9,240	62,441	-48,158	62,258	41,300	35,22															
04:02:59.401	COM3_115200	2000-0-0 5:54:22.755	-0,341	0,959	1,822	-1,099	-4,150	-3,479	5,427	25,620	-21,835	12,417	-19,783	-13,575	38,37															
04:02:59.410	COM8_115200	2000-0-0 5:58:45.000	0,433	0,874	1,852	6,958	19,470	-2,991	17,188	-8,915	62,446	-48,158	62,258	41,300	35,22															
04:02:59.416	COM8_115200	2000-0-0 5:58:45.020	0,398	0,908	1,877	8,606	18,372	-6,287	17,441	-8,542	62,441	-48,158	62,258	41,300	35,09															
04:02:59.434	COM3_115200	2000-0-0 5:54:22.775	-0,358	0,926	1,784	-2,686	-8,484	-2,136	5,614	25,329	-21,797	12,583	-19,767	-13,542	38,43															
04:02:59.436	COM8_115200	2000-0-0 5:58:45.040	0,403	0,894	1,890	10,559	14,709	-8,972	17,743	-8,234	62,353	-48,158	62,258	41,300	35,15															
04:02:59.442	COM3_115200	2000-0-0 5:54:22.795	-0,318	0,939	1,804	-2,502	-9,644	-4,272	5,806	24,966	-21,797	12,717	-19,767	-13,683	38,31															
04:02:59.483	COM8_115200	2000-0-0 5:58:45.060	0,376	0,856	1,877	11,719	20,142	-8,606	18,067	-7,877	62,265	-48,158	62,258	41,300	35,18															
04:02:59.485	COM8_115200	2000-0-0 5:58:45.080	0,479	0,884	1,966	12,146	16,174	-4,028	18,402	-7,531	62,249	-48,158	62,258	41,300	35,37															
04:02:59.506	COM8_115200	2000-0-0 5:58:45.100	0,321	0,987	1,928	-1,404	4,761	-3,662	18,572	-7,350	62,210	-48,158	62,258	41,300	35,31															
04:02:59.512	COM3_115200	2000-0-0 5:54:22.815	-0,407	0,890	1,765	0,366	-15,869	-5,798	5,982	24,593	-21,846	12,750	-19,800	-13,617	38,31															
04:02:59.516	COM3_115200	2000-0-0 5:54:22.835	-0,418	0,928	1,797	8,667	-25,696	-2,563	6,328	23,978	-21,885	12,858	-19,858	-13,625	38,37															
04:02:59.518	COM8_115200	2000-0-0 5:58:45.120	0,390	0,948	1,879	-11,902	-12,512	1,404	18,484	-7,526	62,139	-48,158	62,258	41,300	35,09															
04:02:59.520	COM3_115200	2000-0-0 5:54:22.855	-0,373	0,948	1,801	0,244	-16,785	0,427	6,647	23,406	-21,857	12,867	-19,800	-13,817	38,37															
04:02:59.521	COM3_115200	2000-0-0 5:54:22.875	-0,378	0,909	1,800	0,916	-9,644	1,526	6,910	23,038	-21,769	12,850	-19,700	-14,000	38,37															
04:02:59.537	COM8_115200	2000-0-0 5:58:45.140	0,454	0,892	1,864	-9,888	-14,893	5,371	18,353	-7,888	62,106	-48,158	62,258	41,300	35,18															
04:02:59.541	COM3_115200	2000-0-0 5:54:22.895	-0,386	0,879	1,825	3,845	-10,498	-3,479	7,191	22,720	-21,747	12,842	-19,592	-13,967	38,50															
04:02:59.556	COM8_115200	2000-0-0 5:58:45.160	0,397	0,898	1,841	-4,944	-11,963	5,981	18,314	-8,212	62,111	-48,158	62,258	41,300	35,28															
04:02:59.560	COM3_115200	2000-0-0 5:54:22.915	-0,358	0,910	1,821	4,944	-14,099	-4,578	7,487	22,330	-21,808	12,825	-19,550	-13,883	38,37															
04:02:59.578	COM8_115200	2000-0-0 5:58:45.180	0,383	0,888	1,842	-2,563	-11,780	5,432	18,331	-8,503	62,122	-48,158	62,258	41,300	35,15															
04:02:59.583	COM3_115200	2000-0-0 5:54:22.935	-0,327	0,940	1,831	-0,671	-1,404	-1,404	7,745	22,061	-21,813	12,892	-19,558	-13,942	38,37															
04:02:59.600	COM8_115200	2000-0-0 5:58:45.200	0,392	0,896	1,837	-1,343	-10,132	3,662	18,380	-8,756	62,117	-48,158	62,258	41,300	35,03															
04:02:59.601	COM3_115200	2000-0-0 5:54:22.955	-0,383	0,903	1,828	-2,441	7,507	-2,319	7,927	22,028	-21,758	12,925	-19,533	-14,000	38,37															
04:02:59.618	COM8_115200	2000-0-0 5:58:45.220	0,409	0,910	1,841	1,099	-6,897	0,244	18,479	-8,959	62,073	-48,158	62,258	41,300	35,15															
04:02:59.622	COM3_115200	2000-0-0 5:54:22.975	-0,377	0,895	1,810	0,000	5,676	-6,409	8,113	22,050	-21,775	13,017	-19,567	-13,950	38,37															
04:02:59.639	COM8_115200	2000-0-0 5:58:45.240	0,412	0,896	1,844	1,587	-3,845	0,000	18,605	-9,080	62,007	-48,158	62,258	41,300	35,12															
04:02:59.643	COM3_115200	2000-0-0 5:54:22.995	-0,394	0,920	1,834	6,287	-0,610	-3,418	8,388	21,951	-21,808	13,117	-19,567	-14,017	38,24															
04:02:59.660	COM8_115200	2000-0-0 5:58:45.260	0,375	0,905	1,846	-0,061	1,160	1,831	18,688	-9,113	61,990	-48,158	62,258	41,300	35,15															
04:02:59.666	COM3_115200	2000-0-0 5:54:23.015	-0,397	0,894	1,835	0,061	4,822	-1,892	8,641	21,879	-21,791	13,208	-19,583	-13,917	38,50															
04:02:59.677	COM8_115200	2000-0-0 5:58:45.280	0,425	0,949	1,861	-2,014	1,587	-0,122	18,748	-9,135	62,012	-48,158	62,258	41,300	35,22															
04:02:59.687	COM3_115200	2000-0-0 5:54:23.035	-0,376	0,905	1,819	-1,099	8,118	-5,981	8,828	21,901	-21,775	13,350	-19,583	-13,833	38,37															
04:02:59.701	COM3_115200	2000-0-0 5:54:23.055	-0,417	0,859	1,767	1,343	3,723	-10,193	8,987	21,951	-21,874	13,458	-19,592	-13,825	38,37															
04:02:59.705	COM8_115200	2000-0-0 5:58:45.300	0,407	0,917	1,872	-1,038	-4,395	-0,671	18,809	-9,196	61,968	-48,158	62,258	41,300	35,09															
04:02:59.726	COM8_115200	2000-0-0 5:58:45.320	0,380	0,902	1,852	-1,038	1,099	-0,427	18,875	-9,229	61,930	-48,158	62,258	41,300	35,28															
04:02:59.732	COM3_115200	2000-0-0 5:54:23.075	-0,350	0,984	1,860	0,549	3,174	-5,798	9,245	21,852	-21,956	13,617	-19,592	-13,717	38,43															
04:02:59.738	COM8_115200	2000-0-0 5:58:45.340	0,473	0,922	1,870	-1,526	2,014	2,563	18,918	-9,229	61,952	-48,158	62,258	41,300	35,12															
04:02:59.743	COM3_115200	2000-0-0 5:54:23.095	-0,418	0,903	1,830	-2,258	7,874	-2,930	9,371	21,885	-21,951	13,825	-19,517	-13,767	38,37															
04:02:59.759	COM8_115200	2000-0-0 5:58:45.360	0,358	0,918	1,882	-1,465	3,662	-0,671	18,968	-9,174	61,963	-48,158	62,258	41,300	35,12															
04:02:59.763	COM3_115200	2000-0-0 5:54:23.115	-0,409	0,893	1,777	-0,305	4,883	-6,470	9,514	21,912	-21,978	14,067	-19,550	-13,867	38,37															
04:02:59.780	COM3_115200	2000-0-0 5:54:23.135	-0,358	0,922	1,825	-0,916	5,493	-6,592	9,712	21,907	-22,017	14,267	-19,442	-13,783	38,18															
04:02:59.786	COM8_115200	2000-0-0 5:58:45.380	0,393	0,903	1,884	-2,258	3,479	-1,343	19,012	-9,146	61,924	-48,158	62,258	41,300	35,00															
04:02:59.825	COM8_115200	2000-0-0 5:58:45.400	0,419	0,884	1,881	-1,709	5,615	1,587	19,045	-9,091	61,941	-48,158	62,258	41,300	35,25															
04:02:59.826	COM8_115200	2000-0-0 5:58:45.420	0,444	0,922	1,894	0,916	4,639	2,930	19,111	-9,042	62,007	-48,158	62,258	41,300	35,25															
04:02:59.831	COM3_115200	2000-0-0 5:54:23.155	-0,424	0,896	1,835	1,404	4,700	-4,517	9,899	21,907	-22,033	14,417	-19,342	-13,700	38,24															
04:02:59.876	COM8_115200	2000-0-0 5:58:45.440	0,348	0,900	1,939	0,671	-1,892	1,648	19,204	-9,053	62,018	-48,158	62,258	41,300	35,28															
04:02:59.879	COM3_115200	2000-0-0 5:54:23.175	-0,381	0,892	1,807	0,610	4,578	-7,446	10,080	21,890	-22,083	14,500	-19,283	-13,675	38,37															
04:02:59.881	COM3_115200	2000-0-0 5:54:23.195	-0,399	0,894	1,812	3,845	1,404	-10,315	10,272	21,852	-22,214	14,658	-19,292	-13,650	38,31															
04:02:59.884	COM3_115200	2000-0-0 5:54:23.215	-0,404	0,920	1,848	4,517	1,282	-6,287	10,508	21,758	-22,324	14,908	-19,208	-13,500	38,37															
04:02:59.887	COM3_115200	2000-0-0 5:54:23.235	-0,431	0,888	1,855	4,333	3,967	-4,333	10,739	21,720	-22,363	15,175	-19,192	-13,533	38,31															
04:02:59.892	COM8_115200	2000-0-0 5:58:45.460	0,370	0,893	1,917	-1,892	-6,287	4,333	19,265	-9,185	62,023	-48,158	62,258	41,300	35,03															
04:02:59.893	COM8_115200	2000-0-0 5:58:45.480	0,414	0,886	1,908	-4,822	-5,798	10,132	19,243	-9,371	62,111	-48,158	62,258	41,300	35,12															
04:02:59.898	COM8_115200	2000-0-0 5:58:45.500	0,454	0,934	1,914	-1,465	-2,136	9,216	19,232	-9,514	62,271	-48,158	62,258	41,300	35,25															
04:02:59.911	COM3_115200	2000-0-0 5:54:23.255	-0,399	0,886	1,830	5,127	7,202	-10,254	10,981	21,758	-22,440	15,358	-19,125	-13,492	38,37															
04:02:59.918	COM8_115200	2000-0-0 5:58:45.520	0,430	0,979	1,947	2,502	-13,733	7,874	19,330	-9,761	62,336	-48,158	62,258	41,300	35,09															
04:02:59.939	COM8_115200	2000-0-0 5:58:45.540	0,337	0,923	1,896	1,221	-16,724	8,240	19,429	-10,118	62,347	-48,158	62,258	41,300	35,22															
04:02:59.942	COM3_115200	2000-0-0 5:54:23.275	-0,446	0,881	1,797	13,062	-1,831	-12,878	11,272	21,742	-22,632	15,542	-19,100	-13,300	38,31															
04:02:59.944	COM3_115200	2000-0-0 5:54:23.295	-0,385	0,953	1,836	9,155	2,991	-8,667	11,635	21,671	-22,769	15,792	-19,117	-13,042	38,37															
04:02:59.959	COM8_115200	2000-0-0 5:58:45.560	0,396	0,884	1,860	-3,174	-6,348	12,512	19,446	-10,421	62,452	-48,158	62,258	41,300	35,15															
04:02:59.963	COM3_115200	2000-0-0 5:54:23.315	-0,428	0,909	1,843	9,888	5,615	-2,563	11,970	21,660	-22,780	16,100	-19,083	-12,733	38,37															
04:02:59.981	COM3_115200	2000-0-0 5:54:23.335	-0,471	0,883	1,800	10,132	5,371	-3,601	12,305	21,693	-22,764	16,283	-19,208	-12,350	38,37															
04:02:59.983	COM8_115200	2000-0-0 5:58:45.580	0,473	0,959	1,918	0,366	3,723	11,047	19,457	-10,508	62,682	-48,158	62,258	41,300	35,28															
04:02:59.997	COM8_115200	2000-0-0 5:58:45.600	0,387	0,945	1,892	-0,488	6,104	6,287	19,506	-10,453	62,847	-48,158	62,258	41,300	35,25															
04:03:00.002	COM3_115200	2000-0-0 5:54:23.355	-0,401	0,938	1,824	5,371	8,179	-5,859	12,640	21,720	-22,775	16,442	-19,183	-11,925	38,43															
04:03:00.019	COM3_115200	2000-0-0 5:54:23.375	-0,439	0,894	1,823	6,531	7,019	-1,221	12,914	21,753	-22,736	16,592	-19,108	-11,775	38,37															
04:03:00.022	COM8_115200	2000-0-0 5:58:45.620	0,400	0,892	1,936	-5,920	10,254	6,653	19,468	-10,349	62,996	-48,158	62,258	41,300	35,15															
04:03:00.038	COM8_115200	2000-0-0 5:58:45.640	0,494	0,866	1,921	-6,714	16,541	10,010	19,341	-10,135	63,232	-48,158	62,258	41,300	35,18															
04:03:00.042	COM3_115200	2000-0-0 5:54:23.395	-0,452	0,849	1,814	7,507	9,460	-2,563	13,228	21,830	-22,676	16,700	-19,050	-11,617	38,37															
04:03:00.058	COM8_115200	2000-0-0 5:58:45.660	0,394	0,882	1,913	-2,136	16,724	11,475	19,259	-9,871	63,528	-48,158	62,258	41,300	35,15															
04:03:00.063	COM3_115200	2000-0-0 5:54:23.415	-0,435	0,901	1,841	19,775	1,282	-1,587	13,694	21,780	-22,659	16,758	-18,975	-11,342	38,37															
04:03:00.078	COM3_115200	2000-0-0 5:54:23.435	-0,449	0,877	1,808	13,794	2,502	-5,066	14,090	21,764	-22,681	16,833	-18,900	-11,017	38,31															
04:03:00.082	COM8_115200	2000-0-0 5:58:45.680	0,378	0,907	1,959	-4,639	6,653	11,902	19,226	-9,767	63,776	-48,158	62,258	41,300	35,28															
04:03:00.100	COM3_115200	2000-0-0 5:54:23.455	-0,376	0,905	1,832	14,404	6,409	-2,930	14,546	21,736	-22,659	16,892	-18,858	-10,642	38,43															
04:03:00.102	COM8_115200	2000-0-0 5:58:45.700	0,472	0,886	1,936	-0,854	0,732	12,939	19,221	-9,855	64,006	-48,158	62,258	41,300	35,09															
04:03:00.118	COM3_115200	2000-0-0 5:54:23.475	-0,457	0,803	1,768	21,118	-0,854	-5,737	14,974	21,703	-22,692	16,900	-18,925	-10,292	38,37															
04:03:00.123	COM8_115200	2000-0-0 5:58:45.720	0,488	0,928	1,955	5,005	5,676	11,414	19,286	-9,866	64,259	-48,158	62,258	41,300	35,15															
04:03:00.137	COM8_115200	2000-0-0 5:58:45.740	0,383	0,919	1,958	8,179	0,000	10,925	19,457	-9,893	64,451	-48,158	62,258	41,300	35,22															
04:03:00.139	COM3_115200	2000-0-0 5:54:23.495	-0,399	0,916	1,806	30,579	-9,277	-5,005	15,639	21,456	-22,819	16,875	-18,975	-9,817	38,31															
04:03:00.159	COM8_115200	2000-0-0 5:58:45.760	0,407	0,865	1,876	8,362	-4,272	10,376	19,660	-10,036	64,578	-48,158	62,258	41,300	35,22															
04:03:00.162	COM3_115200	2000-0-0 5:54:23.515	-0,373	0,926	1,812	24,475	-9,460	-1,709	16,243	21,154	-22,912	16,892	-18,883	-9,417	38,12															
04:03:00.180	COM8_115200	2000-0-0 5:58:45.780	0,438	0,877	1,963	9,583	-11,780	11,047	19,885	-10,267	64,671	-48,158	62,258	41,300	35,22															
04:03:00.189	COM3_115200	2000-0-0 5:54:23.535	-0,419	0,867	1,805	16,541	-3,601	-0,671	16,721	20,940	-22,928	16,942	-18,758	-8,950	38,37															
04:03:00.222	COM8_115200	2000-0-0 5:58:45.800	0,520	0,894	1,920	12,939	-4,883	10,559	20,143	-10,514	64,819	-48,158	62,258	41,300	35,25															
04:03:00.224	COM8_115200	2000-0-0 5:58:45.820	0,405	0,913	1,900	12,573	-13,672	10,925	20,451	-10,761	64,940	-48,158	62,258	41,300	35,03															
04:03:00.225	COM3_115200	2000-0-0 5:54:23.555	-0,495	0,803	1,761	34,729	-16,174	-2,502	17,298	20,649	-23,011	17,033	-18,742	-8,492	38,37															
04:03:00.241	COM3_115200	2000-0-0 5:54:23.575	-0,408	0,919	1,742	34,607	-17,395	-3,601	18,111	20,226	-23,121	17,075	-18,683	-8,050	38,31															
04:03:00.244	COM3_115200	2000-0-0 5:54:23.595	-0,372	0,878	1,781	32,593	-12,451	0,488	18,814	19,847	-23,214	17,133	-18,658	-7,292	38,31															
04:03:00.249	COM8_115200	2000-0-0 5:58:45.840	0,443	0,859	1,905	11,169	-20,386	11,414	20,715	-11,195	64,995	-48,158	62,258	41,300	35,22															
04:03:00.259	COM3_115200	2000-0-0 5:54:23.615	-0,436	0,827	1,758	23,438	-3,967	-4,456	19,407	19,666	-23,258	17,142	-18,650	-6,533	38,43															
04:03:00.261	COM8_115200	2000-0-0 5:58:45.860	0,493	0,783	1,854	10,010	-12,634	14,648	20,918	-11,613	65,110	-48,158	62,258	41,300	35,00															
04:03:00.280	COM8_115200	2000-0-0 5:58:45.880	0,484	0,883	1,869	19,775	-7,690	14,160	21,270	-11,904	65,303	-48,158	62,258	41,300	35,06															
04:03:00.284	COM3_115200	2000-0-0 5:54:23.635	-0,470	0,793	1,714	44,312	-16,663	-7,813	20,105	19,402	-23,445	17,050	-18,583	-5,858	38,37															
04:03:00.300	COM3_115200	2000-0-0 5:54:23.655	-0,379	0,924	1,727	40,588	-16,785	-8,606	20,978	19,039	-23,703	17,142	-18,608	-4,967	38,37															
04:03:00.302	COM8_115200	2000-0-0 5:58:45.900	0,412	0,821	1,878	14,587	-19,043	14,771	21,594	-12,261	65,446	-48,158	62,258	41,300	35,18															
04:03:00.319	COM3_115200	2000-0-0 5:54:23.675	-0,458	0,832	1,746	33,813	-13,672	-7,507	21,638	18,748	-23,934	17,242	-18,575	-4,000	38,43															
04:03:00.337	COM8_115200	2000-0-0 5:58:45.920	0,456	0,813	1,892	12,207	-13,672	14,038	21,874	-12,678	65,577	-48,158	62,258	41,300	35,22															
04:03:00.338	COM8_115200	2000-0-0 5:58:45.940	0,628	0,795	1,785	22,461	-6,104	18,188	22,143	-12,964	65,808	-48,158	62,258	41,300	35,18															
04:03:00.342	COM3_115200	2000-0-0 5:54:23.695	-0,513	0,784	1,689	36,438	-25,757	-12,268	22,291	18,402	-24,230	17,383	-18,458	-3,183	38,24															
04:03:00.358	COM8_115200	2000-0-0 5:58:45.960	0,377	0,884	1,813	22,766	2,441	14,221	22,615	-13,041	66,127	-48,158	62,258	41,300	35,22															
04:03:00.362	COM3_115200	2000-0-0 5:54:23.715	-0,498	0,888	1,691	65,796	-42,786	-9,216	23,242	17,661	-24,791	17,567	-18,325	-2,425	38,37															
04:03:00.379	COM8_115200	2000-0-0 5:58:45.980	0,500	0,838	1,845	20,203	0,610	16,052	22,983	-13,178	66,401	-48,158	62,258	41,300	35,22															
04:03:00.386	COM3_115200	2000-0-0 5:54:23.735	-0,268	1,036	1,715	23,132	1,221	-8,850	24,066	17,353	-25,038	17,808	-18,133	-1,633	38,31															
04:03:00.400	COM3_115200	2000-0-0 5:54:23.755	-0,523	0,673	1,697	10,864	15,930	-11,780	24,252	17,672	-25,065	18,108	-18,033	-0,925	38,31															
04:03:00.405	COM8_115200	2000-0-0 5:58:46.000	0,566	0,820	1,783	14,648	12,207	16,113	23,231	-13,123	66,742	-48,158	62,258	41,300	35,18															
04:03:00.422	COM8_115200	2000-0-0 5:58:46.020	0,440	0,866	1,835	18,555	10,864	19,531	23,538	-13,068	67,176	-48,158	62,258	41,300	35,22															
04:03:00.425	COM3_115200	2000-0-0 5:54:23.775	-0,530	0,688	1,626	49,377	-12,878	-14,709	24,879	17,672	-25,340	18,375	-17,892	-0,300	38,37															
04:03:00.462	COM8_115200	2000-0-0 5:58:46.040	0,477	0,819	1,852	14,465	-2,136	20,569	23,769	-13,189	67,527	-48,158	62,258	41,300	35,28															
04:03:00.464	COM8_115200	2000-0-0 5:58:46.060	0,563	0,810	1,803	12,024	-0,122	17,517	23,945	-13,376	67,852	-48,158	62,258	41,300	35,28															
04:03:00.464	COM3_115200	2000-0-0 5:54:23.795	-0,391	0,848	1,610	42,969	-11,047	-13,977	25,757	17,507	-25,692	18,683	-17,717	0,408	38,43															
04:03:00.466	COM3_115200	2000-0-0 5:54:23.815	-0,385	0,767	1,687	31,189	3,296	-6,714	26,400	17,518	-25,845	19,033	-17,492	1,350	38,43															
04:03:00.479	COM8_115200	2000-0-0 5:58:46.080	0,457	0,879	1,811	20,813	0,366	18,555	24,269	-13,541	68,176	-48,158	62,258	41,300	35,25															
04:03:00.481	COM3_115200	2000-0-0 5:54:23.835	-0,470	0,688	1,657	39,001	-7,080	-10,742	27,010	17,512	-25,994	19,367	-17,267	2,375	38,37															
04:03:00.498	COM3_115200	2000-0-0 5:54:23.855	-0,577	0,712	1,521	60,364	-40,344	-15,747	27,845	17,100	-26,510	19,675	-17,083	3,425	38,37															
04:03:00.526	COM3_115200	2000-0-0 5:54:23.875	-0,401	0,903	1,610	66,650	-29,846	-5,005	29,009	16,496	-27,037	19,983	-16,792	4,358	38,37															
04:03:00.528	COM8_115200	2000-0-0 5:58:46.100	0,531	0,805	1,857	14,099	-13,611	17,090	24,516	-13,826	68,379	-48,158	62,258	41,300	35,15															
04:03:00.532	COM8_115200	2000-0-0 5:58:46.120	0,506	0,749	1,833	13,000	-5,249	17,883	24,725	-14,134	68,621	-48,158	62,258	41,300	35,22															
04:03:00.538	COM8_115200	2000-0-0 5:58:46.140	0,510	0,770	1,756	18,738	4,700	19,043	24,977	-14,288	68,945	-48,158	62,258	41,300	35,28															
04:03:00.548	COM3_115200	2000-0-0 5:54:23.895	-0,409	0,844	1,705	33,325	-0,061	-0,488	29,855	16,304	-27,114	20,358	-16,458	5,450	38,37															
04:03:00.557	COM3_115200	2000-0-0 5:54:23.915	-0,574	0,645	1,549	38,025	-17,090	-12,329	30,394	16,254	-27,290	20,633	-16,125	6,550	38,37															
04:03:00.588	COM3_115200	2000-0-0 5:54:23.935	-0,482	0,741	1,492	60,608	-37,048	-15,015	31,267	15,864	-27,867	20,867	-15,808	7,533	38,31															
04:03:00.606	COM8_115200	2000-0-0 5:58:46.160	0,562	0,817	1,787	34,302	1,709	17,822	25,411	-14,337	69,296	-48,158	62,258	41,300	35,22															
04:03:00.607	COM3_115200	2000-0-0 5:54:23.955	-0,541	0,857	1,586	54,626	-22,095	-7,507	32,223	15,414	-28,394	21,233	-15,517	8,575	38,37															
04:03:00.614	COM8_115200	2000-0-0 5:58:46.180	0,472	0,819	1,840	21,667	-8,789	14,832	25,900	-14,568	69,538	-48,158	62,258	41,300	35,15															
04:03:00.615	COM8_115200	2000-0-0 5:58:46.200	0,512	0,713	1,829	12,329	-4,211	18,921	26,076	-14,848	69,802	-48,158	62,258	41,300	35,34															
04:03:00.619	COM3_115200	2000-0-0 5:54:23.975	-0,427	0,821	1,644	34,180	0,793	-1,099	32,953	15,337	-28,422	21,625	-15,092	9,608	38,31															
04:03:00.629	COM8_115200	2000-0-0 5:58:46.220	0,634	0,707	1,643	26,672	10,437	18,982	26,312	-14,903	70,186	-48,158	62,258	41,300	35,25															
04:03:00.639	COM8_115200	2000-0-0 5:58:46.240	0,464	0,839	1,810	53,589	3,296	13,489	27,136	-14,914	70,565	-48,158	62,258	41,300	35,28															
04:03:00.640	COM3_115200	2000-0-0 5:54:23.995	-0,452	0,617	1,567	25,635	-5,066	-14,832	33,338	15,452	-28,575	21,942	-14,675	10,658	38,24															
04:03:00.659	COM8_115200	2000-0-0 5:58:46.260	0,563	0,829	1,865	29,236	-11,047	15,869	27,850	-15,150	70,708	-48,158	62,258	41,300	35,15															
04:03:00.663	COM3_115200	2000-0-0 5:54:24.015	-0,662	0,559	1,443	53,528	-42,114	-21,667	33,876	15,167	-29,213	22,183	-14,300	11,683	38,50															
04:03:00.677	COM3_115200	2000-0-0 5:54:24.035	-0,495	0,751	1,547	68,726	-34,241	-10,010	34,882	14,656	-29,971	22,675	-13,817	12,583	38,31															
04:03:00.682	COM8_115200	2000-0-0 5:58:46.280	0,522	0,674	1,750	15,869	1,038	20,142	28,098	-15,408	70,999	-48,158	62,258	41,300	35,18															
04:03:00.698	COM3_115200	2000-0-0 5:54:24.055	-0,393	0,748	1,679	40,955	-4,150	-1,099	35,771	14,507	-30,125	23,208	-13,250	13,692	38,43															
04:03:00.703	COM8_115200	2000-0-0 5:58:46.300	0,522	0,628	1,657	35,400	12,268	25,696	28,433	-15,491	71,494	-48,158	62,258	41,300	35,00															
04:03:00.718	COM3_115200	2000-0-0 5:54:24.075	-0,437	0,523	1,587	41,443	-9,644	-15,991	36,299	14,562	-30,328	23,600	-12,708	14,733	38,31															
04:03:00.721	COM8_115200	2000-0-0 5:58:46.320	0,548	0,751	1,657	64,087	12,695	16,418	29,377	-15,425	72,004	-48,158	62,258	41,300	35,28															
04:03:00.738	COM3_115200	2000-0-0 5:54:24.095	-0,711	0,458	1,402	66,162	-52,551	-21,729	37,007	14,189	-31,086	24,067	-12,250	15,692	38,43															
04:03:00.741	COM8_115200	2000-0-0 5:58:46.340	0,499	0,743	1,806	41,626	4,150	20,386	30,289	-15,529	72,328	-48,158	62,258	41,300	35,18															
04:03:00.757	COM3_115200	2000-0-0 5:54:24.115	-0,499	0,682	1,554	86,182	-36,804	-19,287	38,254	13,821	-32,020	24,692	-11,725	16,742	38,43															
04:03:00.759	COM8_115200	2000-0-0 5:58:46.360	0,535	0,551	1,591	29,297	23,376	28,076	30,624	-15,551	72,916	-48,158	62,258	41,300	35,15															
04:03:00.781	COM8_115200	2000-0-0 5:58:46.380	0,563	0,628	1,605	71,777	21,118	27,100	31,432	-15,392	73,636	-48,158	62,258	41,300	35,28															
04:03:00.786	COM3_115200	2000-0-0 5:54:24.135	-0,427	0,706	1,604	59,387	-5,249	-12,878	39,370	13,760	-32,382	25,417	-10,992	17,908	38,50															
04:03:00.800	COM8_115200	2000-0-0 5:58:46.400	0,560	0,769	1,718	58,594	17,334	18,799	32,509	-15,331	74,251	-48,158	62,258	41,300	35,09															
04:03:00.803	COM3_115200	2000-0-0 5:54:24.155	-0,517	0,508	1,466	46,326	-1,953	-21,484	40,073	14,013	-32,673	26,092	-10,233	19,300	38,31															
04:03:00.820	COM8_115200	2000-0-0 5:58:46.420	0,641	0,603	1,678	36,438	32,593	32,715	33,041	-15,222	74,960	-48,158	62,258	41,300	35,18															
04:03:00.828	COM3_115200	2000-0-0 5:54:24.175	-0,771	0,464	1,361	69,641	-20,569	-28,137	40,858	14,084	-33,239	26,750	-9,425	20,617	38,43															
04:03:00.838	COM3_115200	2000-0-0 5:54:24.195	-0,475	0,673	1,456	72,754	-19,897	-25,085	41,995	14,216	-33,926	27,492	-8,475	21,967	38,43															
04:03:00.846	COM8_115200	2000-0-0 5:58:46.440	0,708	0,552	1,584	62,317	40,894	32,166	33,574	-14,903	75,992	-48,158	62,258	41,300	35,18															
04:03:00.859	COM3_115200	2000-0-0 5:54:24.215	-0,480	0,572	1,384	46,509	-9,033	-23,865	42,720	14,321	-34,420	28,208	-7,400	23,308	38,31															
04:03:00.863	COM8_115200	2000-0-0 5:58:46.460	0,625	0,684	1,621	75,195	40,710	52,979	34,601	-14,815	77,173	-48,158	62,258	41,300	35,06															
04:03:00.879	COM3_115200	2000-0-0 5:54:24.235	-0,600	0,382	1,318	46,509	-11,292	-26,917	43,237	14,634	-34,898	29,017	-6,417	24,575	38,37															
04:03:00.881	COM8_115200	2000-0-0 5:58:46.480	0,646	0,701	1,659	51,392	28,564	69,763	35,272	-15,046	78,679	-48,158	62,258	41,300	35,22															
04:03:00.897	COM3_115200	2000-0-0 5:54:24.255	-0,768	0,466	1,375	72,632	-19,043	-34,729	44,028	14,854	-35,552	29,867	-5,442	25,858	38,37															
04:03:00.902	COM8_115200	2000-0-0 5:58:46.500	0,700	0,584	1,560	37,964	19,165	45,288	35,629	-15,331	79,816	-48,158	62,258	41,300	35,15															
04:03:00.920	COM3_115200	2000-0-0 5:54:24.275	-0,554	0,730	1,420	65,979	-12,024	-23,499	45,049	15,095	-36,200	30,675	-4,300	27,183	38,37															
04:03:00.922	COM8_115200	2000-0-0 5:58:46.520	0,693	0,584	1,535	56,274	10,437	76,599	36,085	-15,853	81,063	-48,158	62,258	41,300	35,12															
04:03:00.959	COM8_115200	2000-0-0 5:58:46.540	0,750	0,728	1,585	56,946	-11,169	67,200	36,766	-16,804	82,304	-48,158	62,258	41,300	35,28															
04:03:00.960	COM8_115200	2000-0-0 5:58:46.560	0,656	0,607	1,596	23,865	-26,428	38,574	37,189	-17,743	82,776	-48,158	62,258	41,300	35,18															
04:03:00.961	COM3_115200	2000-0-0 5:54:24.295	-0,593	0,521	1,395	32,227	1,709	-19,287	45,516	15,375	-36,497	31,533	-3,117	28,467	38,37															
04:03:00.982	COM3_115200	2000-0-0 5:54:24.315	-0,709	0,348	1,284	49,438	-6,714	-19,836	45,923	15,656	-36,810	32,350	-1,975	29,575	38,31															
04:03:00.985	COM8_115200	2000-0-0 5:58:46.580	0,713	0,404	1,529	31,250	-29,053	51,941	37,359	-18,809	83,167	-48,158	62,258	41,300	35,06															
04:03:00.987	COM3_115200	2000-0-0 5:54:24.335	-0,604	0,491	1,394	58,838	-1,831	-27,588	46,670	16,062	-37,172	33,125	-0,908	30,483	38,31															
04:03:01.011	COM8_115200	2000-0-0 5:58:46.600	0,727	0,525	1,562	58,411	-31,250	43,030	38,062	-19,896	83,524	-48,158	62,258	41,300	35,12															
04:03:01.013	COM3_115200	2000-0-0 5:54:24.355	-0,615	0,550	1,398	48,462	10,254	-22,400	47,357	16,534	-37,375	33,783	0,200	31,508	38,37															
04:03:01.019	COM3_115200	2000-0-0 5:54:24.375	-0,581	0,445	1,401	41,748	8,118	-22,644	47,867	17,073	-37,524	34,342	1,308	32,700	38,50															
04:03:01.026	COM8_115200	2000-0-0 5:58:46.620	0,766	0,554	1,595	38,879	-20,630	39,551	38,655	-20,792	83,919	-48,158	62,258	41,300	35,22															
04:03:01.037	COM3_115200	2000-0-0 5:54:24.395	-0,587	0,307	1,323	45,166	-2,258	-24,170	48,296	17,490	-37,766	34,833	2,442	33,925	38,24															
04:03:01.042	COM8_115200	2000-0-0 5:58:46.640	0,616	0,379	1,613	27,039	-14,709	50,232	38,881	-21,660	84,419	-48,158	62,258	41,300	35,18															
04:03:01.057	COM3_115200	2000-0-0 5:54:24.415	-0,638	0,338	1,363	61,523	-4,517	-26,855	48,933	17,875	-38,177	35,342	3,575	35,125	38,43															
04:03:01.062	COM8_115200	2000-0-0 5:58:46.660	0,712	0,281	1,541	39,978	-10,010	48,035	39,029	-22,445	85,106	-48,158	62,258	41,300	35,12															
04:03:01.102	COM8_115200	2000-0-0 5:58:46.680	0,737	0,408	1,526	59,937	-9,277	47,729	39,562	-23,170	85,847	-48,158	62,258	41,300	35,22															
04:03:01.103	COM8_115200	2000-0-0 5:58:46.700	0,704	0,466	1,560	46,082	-12,146	50,232	40,106	-23,983	86,506	-48,158	62,258	41,300	35,18															
04:03:01.108	COM3_115200	2000-0-0 5:54:24.435	-0,624	0,401	1,353	61,035	-8,362	-31,738	49,592	18,298	-38,699	35,967	4,783	36,208	38,24															
04:03:01.112	COM3_115200	2000-0-0 5:54:24.455	-0,526	0,392	1,396	57,922	-6,348	-32,532	50,224	18,792	-39,221	36,617	6,125	37,233	38,37															
04:03:01.117	COM3_115200	2000-0-0 5:54:24.475	-0,583	0,241	1,335	54,504	-9,033	-27,832	50,740	19,166	-39,710	37,317	7,558	38,383	38,37															
04:03:01.119	COM8_115200	2000-0-0 5:58:46.720	0,739	0,363	1,562	43,152	-20,813	52,185	40,435	-24,901	87,094	-48,158	62,258	41,300	35,25															
04:03:01.139	COM3_115200	2000-0-0 5:54:24.495	-0,674	0,196	1,191	67,078	-24,963	-28,931	51,273	19,418	-40,446	38,067	9,133	39,108	38,37															
04:03:01.148	COM8_115200	2000-0-0 5:58:46.740	0,810	0,324	1,545	52,246	-13,550	53,894	40,759	-25,801	87,852	-48,158	62,258	41,300	35,31															
04:03:01.157	COM3_115200	2000-0-0 5:54:24.515	-0,729	0,377	1,361	79,468	-21,729	-41,199	52,141	19,753	-41,204	38,925	10,725	40,008	38,31															
04:03:01.168	COM8_115200	2000-0-0 5:58:46.760	0,805	0,392	1,425	46,265	-0,244	60,913	41,072	-26,642	88,792	-48,158	62,258	41,300	35,25															
04:03:01.178	COM3_115200	2000-0-0 5:54:24.535	-0,636	0,449	1,347	65,308	-15,747	-33,691	52,872	20,143	-42,028	39,917	12,433	40,933	38,31															
04:03:01.184	COM8_115200	2000-0-0 5:58:46.780	0,752	0,396	1,411	49,622	-21,912	56,213	41,358	-27,554	89,610	-48,158	62,258	41,300	35,06															
04:03:01.198	COM3_115200	2000-0-0 5:54:24.555	-0,665	0,285	1,322	51,758	-12,146	-30,090	53,333	20,522	-42,610	40,917	14,325	41,833	38,43															
04:03:01.216	COM8_115200	2000-0-0 5:58:46.800	0,828	0,333	1,455	45,105	-43,701	53,772	41,748	-28,790	90,077	-48,158	62,258	41,300	35,18															
04:03:01.220	COM3_115200	2000-0-0 5:54:24.575	-0,740	0,184	1,208	58,838	-21,301	-35,522	53,712	20,896	-43,297	41,817	16,125	42,633	38,37															
04:03:01.237	COM8_115200	2000-0-0 5:58:46.820	0,811	0,272	1,402	42,053	-39,368	61,523	42,133	-30,207	90,467	-48,158	62,258	41,300	35,18															
04:03:01.239	COM8_115200	2000-0-0 5:58:46.840	0,822	0,254	1,389	47,058	-30,029	59,326	42,435	-31,432	91,033	-48,158	62,258	41,300	35,25															
04:03:01.244	COM3_115200	2000-0-0 5:54:24.595	-0,802	0,300	1,375	68,298	-4,089	-37,598	54,388	21,467	-43,973	42,800	17,950	43,375	38,37															
04:03:01.258	COM3_115200	2000-0-0 5:54:24.615	-0,714	0,284	1,341	51,025	0,671	-42,175	54,844	22,132	-44,445	43,833	19,825	44,342	38,31															
04:03:01.261	COM8_115200	2000-0-0 5:58:46.860	0,759	0,238	1,360	42,542	-27,588	55,847	42,632	-32,580	91,697	-48,158	62,258	41,300	35,25															
04:03:01.277	COM3_115200	2000-0-0 5:54:24.635	-0,513	0,166	1,318	44,189	0,610	-37,720	55,124	22,835	-44,934	44,717	21,758	45,067	38,37															
04:03:01.292	COM8_115200	2000-0-0 5:58:46.880	0,708	0,166	1,408	43,945	-40,466	54,504	42,891	-33,761	92,175	-48,158	62,258	41,300	35,12															
04:03:01.330	COM3_115200	2000-0-0 5:54:24.655	-0,711	0,002	1,248	44,617	1,160	-30,457	55,267	23,439	-45,385	45,483	23,617	45,633	38,50															
04:03:01.348	COM8_115200	2000-0-0 5:58:46.900	0,774	0,147	1,454	41,992	-35,583	58,533	43,198	-35,074	92,609	-48,158	62,258	41,300	35,28															
04:03:01.350	COM8_115200	2000-0-0 5:58:46.920	0,802	0,110	1,403	44,434	-15,808	55,603	43,286	-36,096	93,334	-48,158	62,258	41,300	35,15															
04:03:01.356	COM3_115200	2000-0-0 5:54:24.675	-0,814	0,111	1,406	64,392	10,315	-46,875	55,838	24,219	-45,599	46,192	25,375	46,208	38,43															
04:03:01.360	COM8_115200	2000-0-0 5:58:46.940	0,751	0,125	1,372	47,546	-11,230	50,720	43,314	-36,898	94,230	-48,158	62,258	41,300	35,28															
04:03:01.361	COM8_115200	2000-0-0 5:58:46.960	0,747	0,095	1,396	39,551	-17,944	51,331	43,330	-37,749	95,026	-48,158	62,258	41,300	35,28															
04:03:01.380	COM3_115200	2000-0-0 5:54:24.695	-0,584	0,162	1,269	50,537	11,841	-45,837	56,195	25,159	-46,110	46,758	27,233	46,800	38,31															
04:03:01.385	COM3_115200	2000-0-0 5:54:24.715	-0,688	0,063	1,285	39,612	23,254	-42,297	56,464	26,098	-46,247	47,308	29,267	47,400	38,31															
04:03:01.387	COM8_115200	2000-0-0 5:58:46.980	0,819	0,018	1,384	42,603	-8,118	49,072	43,198	-38,524	95,900	-48,158	62,258	41,300	35,12															
04:03:01.390	COM3_115200	2000-0-0 5:54:24.735	-0,747	-0,010	1,238	39,551	7,874	-42,969	56,503	27,010	-46,577	47,683	31,217	48,075	38,37															
04:03:01.396	COM3_115200	2000-0-0 5:54:24.755	-0,774	0,102	1,234	47,607	1,343	-44,434	56,651	27,779	-47,071	48,100	33,125	48,942	38,37															
04:03:01.402	COM8_115200	2000-0-0 5:58:47.000	0,846	0,091	1,332	41,992	2,197	45,593	43,083	-39,089	96,888	-48,158	62,258	41,300	35,09															
04:03:01.418	COM3_115200	2000-0-0 5:54:24.775	-0,785	0,111	1,203	31,067	1,404	-41,504	56,569	28,564	-47,626	48,483	34,992	49,667	38,31															
04:03:01.435	COM8_115200	2000-0-0 5:58:47.020	0,852	0,084	1,330	34,668	-1,160	43,091	42,847	-39,578	97,844	-48,158	62,258	41,300	35,15															
04:03:01.441	COM8_115200	2000-0-0 5:58:47.040	0,855	0,023	1,335	32,837	-4,395	40,344	42,539	-40,100	98,718	-48,158	62,258	41,300	35,03															
04:03:01.445	COM3_115200	2000-0-0 5:54:24.795	-0,688	0,020	1,196	20,691	11,841	-38,879	56,294	29,328	-48,027	48,850	36,858	50,233	38,37															
04:03:01.466	COM3_115200	2000-0-0 5:54:24.815	-0,805	-0,051	1,178	22,400	14,587	-30,029	56,003	30,103	-48,241	49,167	38,650	50,792	38,31															
04:03:01.472	COM8_115200	2000-0-0 5:58:47.060	0,842	0,033	1,329	31,921	-5,066	38,269	42,286	-40,605	99,531	-48,158	62,258	41,300	35,15															
04:03:01.481	COM8_115200	2000-0-0 5:58:47.080	0,871	-0,022	1,307	26,367	-8,240	33,508	41,946	-41,089	100,267	-48,158	62,258	41,300	35,31															
04:03:01.484	COM3_115200	2000-0-0 5:54:24.835	-0,786	0,057	1,203	18,921	2,319	-28,992	55,783	30,696	-48,538	49,408	40,183	51,433	38,31															
04:03:01.497	COM3_115200	2000-0-0 5:54:24.855	-0,792	-0,016	1,157	11,902	2,197	-28,992	55,223	31,185	-48,966	49,617	41,608	51,842	38,31															
04:03:01.503	COM8_115200	2000-0-0 5:58:47.100	0,882	-0,018	1,293	26,062	-6,958	30,701	41,649	-41,561	100,926	-48,158	62,258	41,300	35,12															
04:03:01.524	COM3_115200	2000-0-0 5:54:24.875	-0,750	-0,035	1,184	15,381	9,766	-24,658	54,794	31,734	-49,290	49,833	42,842	52,108	38,24															
04:03:01.537	COM8_115200	2000-0-0 5:58:47.120	0,827	-0,017	1,297	21,301	-7,141	27,466	41,336	-41,957	101,497	-48,158	62,258	41,300	35,22															
04:03:01.539	COM8_115200	2000-0-0 5:58:47.140	0,829	-0,078	1,316	15,747	-11,353	22,949	40,946	-42,330	101,964	-48,158	62,258	41,300	35,00															
04:03:01.543	COM3_115200	2000-0-0 5:54:24.895	-0,716	-0,064	1,175	7,324	11,353	-23,315	54,338	32,272	-49,460	50,033	43,933	52,283	38,18															
04:03:01.559	COM8_115200	2000-0-0 5:58:47.160	0,847	-0,079	1,313	16,907	-7,813	18,250	40,594	-42,643	102,382	-48,158	62,258	41,300	35,15															
04:03:01.563	COM3_115200	2000-0-0 5:54:24.915	-0,756	-0,072	1,204	11,475	6,836	-19,592	53,871	32,761	-49,603	50,175	44,850	52,583	38,43															
04:03:01.576	COM3_115200	2000-0-0 5:54:24.935	-0,720	-0,049	1,199	4,883	1,831	-16,541	53,295	33,107	-49,905	50,283	45,675	53,017	38,31															
04:03:01.581	COM8_115200	2000-0-0 5:58:47.180	0,829	-0,079	1,324	13,611	-0,977	16,907	40,177	-42,847	102,832	-48,158	62,258	41,300	35,12															
04:03:01.601	COM3_115200	2000-0-0 5:54:24.955	-0,669	-0,113	1,215	0,488	3,784	-15,930	52,597	33,415	-50,169	50,400	46,450	53,208	38,37															
04:03:01.607	COM8_115200	2000-0-0 5:58:47.200	0,762	-0,132	1,331	9,033	-0,916	13,428	39,650	-42,940	103,282	-48,158	62,258	41,300	35,15															
04:03:01.621	COM3_115200	2000-0-0 5:54:24.975	-0,673	-0,127	1,215	2,502	-1,099	-12,146	51,888	33,662	-50,455	50,425	47,133	53,342	38,37															
04:03:01.630	COM8_115200	2000-0-0 5:58:47.220	0,788	-0,144	1,354	11,169	5,005	9,460	39,144	-42,946	103,711	-48,158	62,258	41,300	35,18															
04:03:01.636	COM3_115200	2000-0-0 5:54:24.995	-0,669	-0,113	1,234	1,221	-10,620	-10,864	51,130	33,766	-50,834	50,508	47,725	53,408	38,24															
04:03:01.650	COM8_115200	2000-0-0 5:58:47.240	0,799	-0,139	1,342	13,977	15,991	3,479	38,611	-42,698	104,227	-48,158	62,258	41,300	35,25															
04:03:01.661	COM8_115200	2000-0-0 5:58:47.260	0,737	-0,121	1,344	8,179	16,541	2,441	38,007	-42,380	104,744	-48,158	62,258	41,300	35,37															
04:03:01.679	COM3_115200	2000-0-0 5:54:25.015	-0,672	-0,104	1,240	-1,160	-11,902	-8,667	50,284	33,745	-51,312	50,642	48,250	53,483	38,24															
04:03:01.686	COM8_115200	2000-0-0 5:58:47.280	0,717	-0,180	1,352	9,583	9,827	-0,183	37,474	-42,089	105,106	-48,158	62,258	41,300	35,25															
04:03:01.717	COM8_115200	2000-0-0 5:58:47.300	0,761	-0,172	1,364	8,972	13,367	-0,366	37,040	-41,814	105,419	-48,158	62,258	41,300	35,22															
04:03:01.720	COM3_115200	2000-0-0 5:54:25.035	-0,594	-0,134	1,244	-3,601	-5,188	-10,559	49,417	33,788	-51,740	50,817	48,575	53,542	38,37															
04:03:01.747	COM8_115200	2000-0-0 5:58:47.320	0,799	-0,127	1,396	11,169	28,137	0,671	36,502	-41,353	105,903	-48,158	62,258	41,300	35,15															
04:03:01.757	COM3_115200	2000-0-0 5:54:25.055	-0,668	-0,151	1,270	-1,465	-4,028	-7,080	48,647	33,854	-52,026	51,067	48,817	53,517	38,56															
04:03:01.760	COM3_115200	2000-0-0 5:54:25.075	-0,692	-0,139	1,277	2,808	-15,808	-9,155	47,834	33,810	-52,476	51,275	49,033	53,383	38,24															
04:03:01.762	COM3_115200	2000-0-0 5:54:25.095	-0,664	-0,109	1,279	1,831	-20,264	-12,085	46,994	33,684	-53,091	51,558	49,367	53,275	38,31															
04:03:01.764	COM3_115200	2000-0-0 5:54:25.115	-0,579	-0,153	1,296	1,465	-9,033	-11,902	46,115	33,624	-53,657	51,900	49,700	53,067	38,24															
04:03:01.773	COM8_115200	2000-0-0 5:58:47.340	0,710	-0,167	1,325	8,667	27,710	1,404	35,821	-40,792	106,469	-48,158	62,258	41,300	35,18															
04:03:01.774	COM8_115200	2000-0-0 5:58:47.360	0,792	-0,163	1,356	11,169	20,813	-1,099	35,310	-40,314	106,924	-48,158	62,258	41,300	35,18															
04:03:01.782	COM3_115200	2000-0-0 5:54:25.135	-0,743	-0,148	1,265	11,475	1,648	-5,737	45,544	33,635	-53,954	52,267	49,942	52,767	38,31															
04:03:01.784	COM8_115200	2000-0-0 5:58:47.380	0,732	-0,108	1,357	15,564	24,109	0,793	34,854	-39,836	107,413	-48,158	62,258	41,300	35,22															
04:03:01.797	COM3_115200	2000-0-0 5:54:25.155	-0,695	-0,073	1,249	14,343	-9,094	-13,550	45,110	33,712	-54,300	52,525	50,217	52,667	38,50															
04:03:01.805	COM8_115200	2000-0-0 5:58:47.400	0,788	-0,123	1,344	13,000	6,714	0,549	34,503	-39,529	107,710	-48,158	62,258	41,300	35,22															
04:03:01.820	COM3_115200	2000-0-0 5:54:25.175	-0,543	-0,106	1,246	6,836	5,005	-12,390	44,528	33,827	-54,668	52,783	50,658	52,750	38,37															
04:03:01.823	COM8_115200	2000-0-0 5:58:47.420	0,714	-0,153	1,394	20,935	-2,991	1,465	34,349	-39,430	107,864	-48,158	62,258	41,300	35,12															
04:03:01.838	COM3_115200	2000-0-0 5:54:25.195	-0,563	-0,217	1,287	5,493	10,071	-10,620	44,022	34,069	-54,778	53,033	51,108	52,625	38,37															
04:03:01.845	COM8_115200	2000-0-0 5:58:47.440	0,863	-0,147	1,465	19,348	1,221	5,737	34,233	-39,424	107,979	-48,158	62,258	41,300	35,25															
04:03:01.857	COM3_115200	2000-0-0 5:54:25.215	-0,558	-0,218	1,247	16,907	14,832	-9,338	43,665	34,321	-54,877	53,192	51,633	52,500	38,31															
04:03:01.862	COM8_115200	2000-0-0 5:58:47.460	0,945	-0,067	1,490	13,245	40,588	12,634	33,766	-39,089	108,545	-48,158	62,258	41,300	35,25															
04:03:01.880	COM3_115200	2000-0-0 5:54:25.235	-0,748	-0,100	1,328	24,658	15,137	-10,803	43,610	34,651	-54,877	53,217	52,108	52,692	38,24															
04:03:01.887	COM8_115200	2000-0-0 5:58:47.480	0,736	-0,149	1,368	-6,226	48,096	16,541	32,574	-38,381	109,682	-48,158	62,258	41,300	35,22															
04:03:01.901	COM8_115200	2000-0-0 5:58:47.500	0,671	-0,219	1,394	10,803	21,667	12,939	31,745	-37,892	110,462	-48,158	62,258	41,300	35,09															
04:03:01.903	COM3_115200	2000-0-0 5:54:25.255	-0,668	-0,072	1,286	11,414	13,733	-17,639	43,281	34,980	-55,052	53,050	52,700	53,067	38,37															
04:03:01.916	COM3_115200	2000-0-0 5:54:25.275	-0,666	-0,159	1,252	10,681	18,982	-18,616	42,858	35,431	-55,217	52,892	53,408	53,292	38,37															
04:03:01.924	COM8_115200	2000-0-0 5:58:47.520	0,820	-0,179	1,445	17,517	15,625	22,400	31,223	-37,700	111,116	-48,158	62,258	41,300	35,12															
04:03:01.939	COM3_115200	2000-0-0 5:54:25.295	-0,793	-0,139	1,241	21,118	17,090	-17,944	42,589	35,870	-55,377	52,775	54,067	53,600	38,31															
04:03:01.941	COM8_115200	2000-0-0 5:58:47.540	0,777	-0,135	1,418	8,179	11,780	23,743	30,575	-37,623	111,907	-48,158	62,258	41,300	35,09															
04:03:01.956	COM3_115200	2000-0-0 5:54:25.315	-0,886	-0,068	1,171	8,240	0,549	-25,818	42,138	36,161	-55,811	52,542	54,783	53,817	38,37															
04:03:01.969	COM8_115200	2000-0-0 5:58:47.560	0,809	-0,168	1,428	14,160	-3,235	22,644	30,059	-37,694	112,429	-48,158	62,258	41,300	35,25															
04:03:01.977	COM3_115200	2000-0-0 5:54:25.335	-0,682	-0,088	1,164	4,883	5,554	-27,100	41,462	36,497	-56,409	52,375	55,583	54,183	38,43															
04:03:01.989	COM8_115200	2000-0-0 5:58:47.580	0,761	-0,170	1,474	18,066	-18,616	18,860	29,767	-38,018	112,758	-48,158	62,258	41,300	35,28															
04:03:02.000	COM3_115200	2000-0-0 5:54:25.355	-0,621	-0,208	1,184	7,996	15,320	-28,198	40,825	36,985	-56,860	52,292	56,433	54,383	38,37															
04:03:02.002	COM8_115200	2000-0-0 5:58:47.600	0,833	-0,116	1,492	18,127	-26,428	21,790	29,614	-38,529	112,961	-48,158	62,258	41,300	35,22															
04:03:02.021	COM8_115200	2000-0-0 5:58:47.620	0,786	-0,173	1,484	10,376	-23,438	25,574	29,262	-39,056	113,258	-48,158	62,258	41,300	35,25															
04:03:02.029	COM3_115200	2000-0-0 5:54:25.375	-0,622	-0,207	1,255	19,043	29,541	-21,973	40,490	37,639	-57,090	52,183	57,300	54,675	38,37															
04:03:02.083	COM8_115200	2000-0-0 5:58:47.640	0,711	-0,211	1,457	14,221	-25,024	29,297	28,867	-39,639	113,648	-48,158	62,258	41,300	35,25															
04:03:02.084	COM8_115200	2000-0-0 5:58:47.660	0,703	-0,248	1,431	17,578	-28,015	26,550	28,521	-40,232	114,033	-48,158	62,258	41,300	35,15															
04:03:02.086	COM3_115200	2000-0-0 5:54:25.395	-0,697	-0,208	1,286	18,066	21,729	-31,860	40,166	38,315	-57,365	51,967	58,167	54,875	38,31															
04:03:02.102	COM3_115200	2000-0-0 5:54:25.415	-0,574	-0,180	1,299	17,944	30,396	-38,940	39,765	39,100	-57,821	51,633	59,100	55,400	38,31															
04:03:02.105	COM3_115200	2000-0-0 5:54:25.435	-0,573	-0,239	1,351	24,048	29,907	-35,156	39,424	39,990	-58,239	51,200	60,050	55,892	38,43															
04:03:02.110	COM3_115200	2000-0-0 5:54:25.455	-0,638	-0,249	1,325	23,315	11,414	-33,875	39,007	40,638	-58,826	50,608	61,300	56,333	38,43															
04:03:02.112	COM8_115200	2000-0-0 5:58:47.680	0,735	-0,180	1,453	14,526	-8,911	24,597	28,158	-40,627	114,494	-48,158	62,258	41,300	35,12															
04:03:02.113	COM8_115200	2000-0-0 5:58:47.700	0,713	-0,248	1,425	13,428	-12,634	26,428	27,636	-40,908	115,060	-48,158	62,258	41,300	35,22															
04:03:02.118	COM3_115200	2000-0-0 5:54:25.475	-0,574	-0,236	1,292	21,729	-2,625	-35,828	38,359	40,957	-59,738	50,008	62,633	56,883	38,37															
04:03:02.123	COM8_115200	2000-0-0 5:58:47.720	0,741	-0,228	1,452	20,569	-13,550	24,841	27,252	-41,226	115,620	-48,158	62,258	41,300	35,25															
04:03:02.136	COM3_115200	2000-0-0 5:54:25.495	-0,532	-0,237	1,261	18,250	1,648	-34,302	37,639	41,243	-60,677	49,658	63,942	57,283	38,50															
04:03:02.151	COM8_115200	2000-0-0 5:58:47.740	0,827	-0,229	1,401	21,851	-5,737	28,503	26,851	-41,490	116,230	-48,158	62,258	41,300	35,28															
04:03:02.155	COM3_115200	2000-0-0 5:54:25.515	-0,559	-0,324	1,218	16,724	7,019	-34,180	36,909	41,600	-61,529	49,483	65,167	57,475	38,37															
04:03:02.172	COM8_115200	2000-0-0 5:58:47.760	0,826	-0,226	1,412	12,695	5,066	30,396	26,169	-41,572	117,109	-48,158	62,258	41,300	35,12															
04:03:02.176	COM3_115200	2000-0-0 5:54:25.535	-0,622	-0,303	1,202	22,766	12,207	-34,180	36,288	42,050	-62,331	49,375	66,442	57,650	38,37															
04:03:02.182	COM8_115200	2000-0-0 5:58:47.780	0,816	-0,249	1,366	10,803	7,751	31,433	25,340	-41,572	118,109	-48,158	62,258	41,300	35,22															
04:03:02.197	COM3_115200	2000-0-0 5:54:25.555	-0,732	-0,257	1,180	21,729	13,123	-26,978	35,799	42,473	-62,957	49,167	67,742	57,892	38,37															
04:03:02.204	COM8_115200	2000-0-0 5:58:47.800	0,775	-0,298	1,311	9,949	-6,165	30,640	24,587	-41,677	118,954	-48,158	62,258	41,300	35,09															
04:03:02.219	COM3_115200	2000-0-0 5:54:25.575	-0,732	-0,296	1,108	6,836	10,986	-26,672	35,090	42,847	-63,567	48,875	68,983	58,058	38,24															
04:03:02.222	COM8_115200	2000-0-0 5:58:47.820	0,757	-0,289	1,327	17,700	-39,185	23,071	24,313	-42,215	119,323	-48,158	62,258	41,300	35,28															
04:03:02.235	COM3_115200	2000-0-0 5:54:25.595	-0,729	-0,284	1,085	-0,488	9,827	-16,541	34,343	43,116	-64,116	48,558	70,117	58,267	38,50															
04:03:02.249	COM8_115200	2000-0-0 5:58:47.840	0,871	-0,309	1,284	15,381	-57,007	28,992	24,104	-43,253	119,520	-48,158	62,258	41,300	35,28															
04:03:02.263	COM3_115200	2000-0-0 5:54:25.615	-0,824	-0,319	1,064	-3,418	6,592	-10,803	33,574	43,275	-64,424	48,267	70,983	58,500	38,43															
04:03:02.270	COM8_115200	2000-0-0 5:58:47.860	1,033	-0,253	1,270	1,648	-40,771	31,189	23,571	-44,280	119,949	-48,158	62,258	41,300	35,09															
04:03:02.279	COM3_115200	2000-0-0 5:54:25.635	-0,784	-0,321	1,047	-11,536	-4,272	-7,751	32,657	43,220	-64,819	48,000	71,608	58,767	38,37															
04:03:02.282	COM8_115200	2000-0-0 5:58:47.880	1,082	-0,241	1,232	-13,245	-1,831	10,986	22,808	-44,572	120,328	-48,158	62,258	41,300	35,06															
04:03:02.299	COM3_115200	2000-0-0 5:54:25.655	-0,754	-0,333	1,110	-18,066	2,625	4,944	31,718	43,077	-65,028	47,867	72,042	58,925	38,18															
04:03:02.301	COM8_115200	2000-0-0 5:58:47.900	0,785	-0,311	1,215	-20,325	-10,315	8,789	21,835	-44,544	120,663	-48,158	62,258	41,300	35,18															
04:03:02.316	COM3_115200	2000-0-0 5:54:25.675	-0,780	-0,368	1,104	-27,222	4,456	2,441	30,729	42,962	-64,990	47,692	72,117	58,933	38,43															
04:03:02.331	COM8_115200	2000-0-0 5:58:47.920	0,852	-0,317	1,188	-18,799	-32,959	-3,418	21,248	-44,962	120,449	-48,158	62,258	41,300	35,09															
04:03:02.340	COM3_115200	2000-0-0 5:54:25.695	-0,740	-0,342	1,134	-31,189	-1,465	23,865	29,855	42,726	-64,737	47,600	71,958	59,033	38,37															
04:03:02.342	COM8_115200	2000-0-0 5:58:47.940	0,885	-0,356	1,183	-20,752	-20,508	-17,883	20,874	-45,225	119,894	-48,158	62,258	41,300	35,28															
04:03:02.356	COM3_115200	2000-0-0 5:54:25.715	-0,724	-0,347	1,138	-32,715	-12,512	32,776	29,031	42,198	-64,325	47,475	71,467	59,267	38,24															
04:03:02.383	COM8_115200	2000-0-0 5:58:47.960	0,918	-0,314	1,216	-24,902	-0,061	-27,710	20,484	-45,082	119,290	-48,158	62,258	41,300	35,28															
04:03:02.384	COM8_115200	2000-0-0 5:58:47.980	0,904	-0,292	1,247	-33,936	24,963	-34,912	19,913	-44,462	118,702	-48,158	62,258	41,300	35,12															
04:03:02.386	COM3_115200	2000-0-0 5:54:25.735	-0,690	-0,329	1,127	-34,668	-17,578	40,344	28,224	41,490	-63,814	47,450	70,533	59,367	38,18															
04:03:02.419	COM8_115200	2000-0-0 5:58:48.000	0,716	-0,290	1,265	-34,363	24,658	-45,715	19,358	-43,572	117,966	-48,158	62,258	41,300	35,28															
04:03:02.423	COM3_115200	2000-0-0 5:54:25.755	-0,671	-0,293	1,128	-37,720	-19,287	47,729	27,504	40,649	-63,116	47,650	69,433	59,283	38,24															
04:03:02.448	COM8_115200	2000-0-0 5:58:48.020	0,845	-0,265	1,274	-38,025	20,752	-51,392	18,979	-42,737	116,917	-48,158	62,258	41,300	35,22															
04:03:02.449	COM8_115200	2000-0-0 5:58:48.040	0,814	-0,226	1,268	-41,748	26,001	-56,213	18,561	-41,847	115,823	-48,158	62,258	41,300	35,31															
04:03:02.451	COM3_115200	2000-0-0 5:54:25.775	-0,639	-0,277	1,139	-41,809	-18,188	52,917	26,790	39,776	-62,287	47,925	67,983	58,925	38,37															
04:03:02.453	COM3_115200	2000-0-0 5:54:25.795	-0,693	-0,240	1,166	-41,016	-19,653	57,373	26,136	38,881	-61,331	48,217	66,275	58,492	38,31															
04:03:02.456	COM3_115200	2000-0-0 5:54:25.815	-0,710	-0,211	1,207	-42,603	-25,024	62,134	25,483	37,875	-60,315	48,458	64,275	58,100	38,37															
04:03:02.463	COM8_115200	2000-0-0 5:58:48.060	0,823	-0,215	1,309	-50,110	40,405	-56,030	17,990	-40,743	114,752	-48,158	62,258	41,300	35,18															
04:03:02.475	COM3_115200	2000-0-0 5:54:25.835	-0,708	-0,172	1,190	-45,715	-30,029	65,063	24,824	36,738	-59,266	48,750	62,108	57,908	38,43															
04:03:02.482	COM8_115200	2000-0-0 5:58:48.080	0,770	-0,202	1,309	-43,457	38,879	-65,979	17,474	-39,507	113,588	-48,158	62,258	41,300	35,28															
04:03:02.497	COM3_115200	2000-0-0 5:54:25.855	-0,681	-0,146	1,179	-45,471	-26,428	68,665	24,186	35,634	-58,129	49,067	59,867	57,450	38,37															
04:03:02.506	COM8_115200	2000-0-0 5:58:48.100	0,768	-0,175	1,298	-46,082	32,654	-67,749	17,078	-38,337	112,264	-48,158	62,258	41,300	35,28															
04:03:02.515	COM3_115200	2000-0-0 5:54:25.875	-0,737	-0,117	1,173	-50,232	-29,297	71,899	23,549	34,508	-56,893	49,392	57,483	56,900	38,37															
04:03:02.522	COM8_115200	2000-0-0 5:58:48.120	0,812	-0,128	1,324	-46,326	23,010	-66,223	16,699	-37,403	110,885	-48,158	62,258	41,300	35,22															
04:03:02.535	COM3_115200	2000-0-0 5:54:25.895	-0,690	-0,104	1,185	-46,631	-24,719	66,040	22,852	33,442	-55,706	49,692	54,975	56,300	38,31															
04:03:02.549	COM8_115200	2000-0-0 5:58:48.140	0,822	-0,101	1,354	-51,697	24,292	-62,988	16,232	-36,546	109,523	-48,158	62,258	41,300	35,06															
04:03:02.565	COM3_115200	2000-0-0 5:54:25.915	-0,686	-0,069	1,202	-52,734	-27,405	66,650	22,154	32,443	-54,531	49,933	52,267	55,575	38,31															
04:03:02.570	COM8_115200	2000-0-0 5:58:48.160	0,755	-0,097	1,394	-50,598	20,996	-61,951	15,705	-35,717	108,199	-48,158	62,258	41,300	35,31															
04:03:02.585	COM8_115200	2000-0-0 5:58:48.180	0,764	-0,063	1,410	-53,467	14,465	-60,120	15,161	-35,008	106,908	-48,158	62,258	41,300	35,06															
04:03:02.586	COM3_115200	2000-0-0 5:54:25.935	-0,647	-0,078	1,212	-54,443	-32,898	64,453	21,341	31,388	-53,394	50,133	49,650	54,642	38,43															
04:03:02.606	COM8_115200	2000-0-0 5:58:48.200	0,710	-0,050	1,454	-50,537	11,414	-53,284	14,551	-34,442	105,716	-48,158	62,258	41,300	35,22															
04:03:02.619	COM3_115200	2000-0-0 5:54:25.955	-0,626	-0,071	1,246	-55,420	-46,448	65,979	20,446	30,157	-52,355	50,233	47,017	53,650	38,24															
04:03:02.622	COM3_115200	2000-0-0 5:54:25.975	-0,566	-0,065	1,321	-47,913	-52,124	63,538	19,578	28,718	-51,389	50,400	44,308	52,500	38,24															
04:03:02.625	COM8_115200	2000-0-0 5:58:48.220	0,756	-0,011	1,464	-49,377	6,226	-51,453	13,975	-33,959	104,546	-48,158	62,258	41,300	35,25															
04:03:02.639	COM3_115200	2000-0-0 5:54:25.995	-0,597	0,009	1,310	-38,696	-29,480	63,354	18,957	27,537	-50,361	50,667	41,717	51,275	38,43															
04:03:02.644	COM8_115200	2000-0-0 5:58:48.240	0,786	0,027	1,453	-51,575	19,043	-49,683	13,299	-33,387	103,530	-48,158	62,258	41,300	35,25															
04:03:02.656	COM3_115200	2000-0-0 5:54:26.015	-0,680	0,059	1,356	-33,569	-15,381	62,134	18,501	26,790	-49,186	50,875	39,158	50,033	38,31															
04:03:02.664	COM8_115200	2000-0-0 5:58:48.260	0,717	0,046	1,455	-50,842	20,874	-44,800	12,612	-32,723	102,563	-48,158	62,258	41,300	35,28															
04:03:02.676	COM3_115200	2000-0-0 5:54:26.035	-0,733	0,134	1,366	-37,842	-24,597	60,303	18,067	26,060	-48,016	50,900	36,750	48,858	38,43															
04:03:02.691	COM8_115200	2000-0-0 5:58:48.280	0,705	0,054	1,395	-48,218	8,362	-43,762	11,970	-32,223	101,602	-48,158	62,258	41,300	35,15															
04:03:02.694	COM3_115200	2000-0-0 5:54:26.055	-0,697	0,158	1,367	-36,926	-32,898	55,481	17,518	25,164	-47,005	50,725	34,525	47,883	38,43															
04:03:02.711	COM8_115200	2000-0-0 5:58:48.300	0,817	0,123	1,443	-45,715	4,883	-42,175	11,437	-31,959	100,618	-48,158	62,258	41,300	35,18															
04:03:02.715	COM3_115200	2000-0-0 5:54:26.075	-0,722	0,187	1,360	-36,865	-27,710	51,758	16,974	24,313	-46,093	50,525	32,392	46,825	38,31															
04:03:02.723	COM8_115200	2000-0-0 5:58:48.320	0,775	0,146	1,451	-42,114	10,864	-39,612	10,904	-31,591	99,706	-48,158	62,258	41,300	35,22															
04:03:02.736	COM3_115200	2000-0-0 5:54:26.095	-0,746	0,221	1,333	-33,325	-15,259	52,490	16,523	23,643	-45,104	50,325	30,358	45,825	38,31															
04:03:02.750	COM8_115200	2000-0-0 5:58:48.340	0,781	0,189	1,432	-41,687	1,404	-41,687	10,443	-31,295	98,795	-48,158	62,258	41,300	35,15															
04:03:02.754	COM3_115200	2000-0-0 5:54:26.115	-0,707	0,245	1,333	-31,494	-6,653	49,744	16,100	23,214	-44,121	50,042	28,442	44,858	38,37															
04:03:02.803	COM8_115200	2000-0-0 5:58:48.360	0,728	0,156	1,475	-37,292	-10,559	-35,583	9,998	-31,234	97,932	-48,158	62,258	41,300	35,18															
04:03:02.804	COM8_115200	2000-0-0 5:58:48.380	0,764	0,148	1,462	-31,372	-19,104	-33,203	9,646	-31,388	97,114	-48,158	62,258	41,300	35,25															
04:03:02.806	COM8_115200	2000-0-0 5:58:48.400	0,711	0,211	1,482	-29,907	-19,592	-32,043	9,410	-31,619	96,323	-48,158	62,258	41,300	35,06															
04:03:02.810	COM3_115200	2000-0-0 5:54:26.135	-0,726	0,274	1,396	-35,156	-4,517	48,218	15,727	22,950	-43,077	49,633	26,617	43,900	38,37															
04:03:02.819	COM3_115200	2000-0-0 5:54:26.155	-0,694	0,281	1,431	-32,166	-3,540	42,480	15,287	22,665	-42,177	49,133	24,842	43,092	38,37															
04:03:02.822	COM8_115200	2000-0-0 5:58:48.420	0,758	0,212	1,504	-29,419	-13,916	-29,541	9,207	-31,816	95,488	-48,158	62,258	41,300	35,25															
04:03:02.823	COM3_115200	2000-0-0 5:54:26.175	-0,652	0,268	1,413	-31,372	4,639	37,231	14,854	22,566	-41,353	48,558	23,175	42,350	38,37															
04:03:02.837	COM3_115200	2000-0-0 5:54:26.195	-0,623	0,270	1,420	-30,273	3,845	35,461	14,480	22,538	-40,534	47,867	21,642	41,558	38,37															
04:03:02.848	COM8_115200	2000-0-0 5:58:48.440	0,740	0,218	1,525	-26,855	-5,432	-29,236	8,992	-31,822	94,779	-48,158	62,258	41,300	35,37															
04:03:02.854	COM3_115200	2000-0-0 5:54:26.215	-0,635	0,268	1,411	-26,794	3,967	36,194	14,117	22,456	-39,776	47,167	20,192	40,875	38,37															
04:03:02.866	COM8_115200	2000-0-0 5:58:48.460	0,724	0,256	1,505	-21,240	-9,583	-28,931	8,822	-31,783	94,114	-48,158	62,258	41,300	35,18															
04:03:02.877	COM3_115200	2000-0-0 5:54:26.235	-0,637	0,314	1,424	-21,423	5,188	29,907	13,859	22,434	-39,056	46,367	18,825	40,442	38,37															
04:03:02.885	COM8_115200	2000-0-0 5:58:48.480	0,784	0,320	1,475	-25,085	-17,578	-28,015	8,696	-31,926	93,450	-48,158	62,258	41,300	35,15															
04:03:02.900	COM3_115200	2000-0-0 5:54:26.255	-0,704	0,382	1,393	-21,057	1,709	31,677	13,640	22,401	-38,386	45,700	17,525	39,975	38,37															
04:03:02.902	COM8_115200	2000-0-0 5:58:48.500	0,838	0,325	1,458	-27,771	-9,583	-25,024	8,509	-32,047	92,769	-48,158	62,258	41,300	35,22															
04:03:02.915	COM3_115200	2000-0-0 5:54:26.275	-0,667	0,399	1,409	-24,719	4,395	29,358	13,409	22,368	-37,705	45,058	16,342	39,625	38,37															
04:03:02.925	COM8_115200	2000-0-0 5:58:48.520	0,788	0,354	1,445	-29,419	-11,230	-27,100	8,284	-32,108	92,137	-48,158	62,258	41,300	35,18															
04:03:02.933	COM3_115200	2000-0-0 5:54:26.295	-0,687	0,421	1,370	-27,161	8,423	32,532	13,151	22,385	-37,035	44,283	15,267	39,158	38,37															
04:03:02.956	COM3_115200	2000-0-0 5:54:26.315	-0,670	0,380	1,362	-28,320	8,423	31,250	12,832	22,434	-36,304	43,475	14,258	38,800	38,31															
04:03:02.961	COM8_115200	2000-0-0 5:58:48.540	0,791	0,340	1,435	-34,607	-15,137	-23,376	7,993	-32,256	91,516	-48,158	62,258	41,300	35,09															
04:03:02.963	COM8_115200	2000-0-0 5:58:48.560	0,781	0,333	1,447	-33,020	-18,433	-23,804	7,685	-32,487	90,912	-48,158	62,258	41,300	35,06															
04:03:02.975	COM3_115200	2000-0-0 5:54:26.335	-0,695	0,431	1,364	-21,729	13,428	29,419	12,634	22,549	-35,601	42,717	13,292	38,483	38,18															
04:03:02.990	COM8_115200	2000-0-0 5:58:48.580	0,788	0,368	1,464	-26,855	-22,339	-23,438	7,427	-32,800	90,286	-48,158	62,258	41,300	35,25															
04:03:02.994	COM3_115200	2000-0-0 5:54:26.355	-0,562	0,460	1,327	-26,184	27,954	30,273	12,469	22,846	-34,876	41,950	12,292	38,125	38,24															
04:03:03.022	COM8_115200	2000-0-0 5:58:48.600	0,749	0,276	1,453	-35,278	-14,587	-25,574	7,092	-33,019	89,659	-48,158	62,258	41,300	35,25															
04:03:03.023	COM8_115200	2000-0-0 5:58:48.620	0,730	0,270	1,424	-30,640	-9,888	-30,334	6,866	-33,074	88,973	-48,158	62,258	41,300	35,12															
04:03:03.027	COM3_115200	2000-0-0 5:54:26.375	-0,604	0,397	1,301	-33,752	37,354	33,936	12,222	23,428	-33,997	41,075	11,325	37,725	38,37															
04:03:03.043	COM8_115200	2000-0-0 5:58:48.640	0,724	0,309	1,408	-32,532	-13,245	-30,762	6,652	-33,157	88,314	-48,158	62,258	41,300	35,22															
04:03:03.047	COM3_115200	2000-0-0 5:54:26.395	-0,732	0,368	1,269	-24,536	15,442	33,325	11,986	23,769	-33,168	40,025	10,342	37,608	38,43															
04:03:03.053	COM3_115200	2000-0-0 5:54:26.415	-0,588	0,483	1,226	-26,489	10,742	29,175	11,843	23,934	-32,426	38,942	9,317	37,442	38,37															
04:03:03.066	COM8_115200	2000-0-0 5:58:48.660	0,811	0,336	1,370	-35,522	-5,371	-32,043	6,498	-33,206	87,484	-48,158	62,258	41,300	35,18															
04:03:03.081	COM3_115200	2000-0-0 5:54:26.435	-0,694	0,567	1,236	-32,166	19,287	33,691	11,651	24,175	-31,630	37,933	8,392	37,308	38,31															
04:03:03.083	COM8_115200	2000-0-0 5:58:48.680	0,798	0,334	1,340	-38,330	-4,028	-32,043	6,262	-33,173	86,688	-48,158	62,258	41,300	35,25															
04:03:03.094	COM3_115200	2000-0-0 5:54:26.455	-0,648	0,505	1,209	-52,856	11,414	35,889	11,168	24,318	-30,817	36,875	7,400	37,133	38,37															
04:03:03.112	COM8_115200	2000-0-0 5:58:48.700	0,724	0,370	1,339	-40,161	-12,146	-35,034	6,048	-33,217	85,825	-48,158	62,258	41,300	35,09															
04:03:03.127	COM3_115200	2000-0-0 5:54:26.475	-0,610	0,421	1,180	-51,697	10,315	37,964	10,569	24,384	-29,938	35,833	6,258	36,658	38,31															
04:03:03.156	COM8_115200	2000-0-0 5:58:48.720	0,770	0,375	1,327	-43,884	-24,170	-40,833	5,795	-33,481	84,869	-48,158	62,258	41,300	35,25															
04:03:03.158	COM8_115200	2000-0-0 5:58:48.740	0,804	0,391	1,347	-46,509	-17,212	-38,269	5,515	-33,739	83,892	-48,158	62,258	41,300	35,22															
04:03:03.183	COM8_115200	2000-0-0 5:58:48.760	0,775	0,437	1,306	-51,819	-12,085	-40,527	5,125	-33,838	82,974	-48,158	62,258	41,300	35,25															
04:03:03.185	COM8_115200	2000-0-0 5:58:48.780	0,710	0,438	1,292	-59,631	-22,034	-38,879	4,620	-34,069	82,013	-48,158	62,258	41,300	35,25															
04:03:03.186	COM3_115200	2000-0-0 5:54:26.495	-0,611	0,458	1,191	-57,739	15,991	39,978	9,976	24,593	-29,026	34,758	5,000	35,875	38,43															
04:03:03.198	COM3_115200	2000-0-0 5:54:26.515	-0,565	0,531	1,200	-69,946	25,818	40,771	9,267	24,873	-28,048	33,700	3,725	34,950	38,31															
04:03:03.201	COM3_115200	2000-0-0 5:54:26.535	-0,542	0,500	1,302	-76,599	27,466	46,143	8,394	25,269	-26,993	32,567	2,317	34,142	38,31															
04:03:03.203	COM3_115200	2000-0-0 5:54:26.555	-0,577	0,452	1,317	-83,801	19,348	44,556	7,388	25,582	-25,900	31,217	1,000	33,075	38,31															
04:03:03.211	COM8_115200	2000-0-0 5:58:48.800	0,713	0,441	1,349	-68,420	-18,677	-39,978	3,988	-34,343	81,019	-48,158	62,258	41,300	35,15															
04:03:03.220	COM3_115200	2000-0-0 5:54:26.575	-0,611	0,554	1,302	-78,979	17,761	43,518	6,378	25,703	-24,895	29,842	-0,450	31,792	38,37															
04:03:03.227	COM8_115200	2000-0-0 5:58:48.820	0,698	0,476	1,326	-78,491	-5,371	-44,861	3,175	-34,393	80,019	-48,158	62,258	41,300	35,03															
04:03:03.235	COM3_115200	2000-0-0 5:54:26.595	-0,454	0,590	1,371	-94,910	28,748	45,593	5,213	26,043	-23,824	28,425	-1,967	30,308	38,50															
04:03:03.246	COM8_115200	2000-0-0 5:58:48.840	0,673	0,523	1,354	-90,271	-3,418	-42,603	2,241	-34,354	78,997	-48,158	62,258	41,300	35,00															
04:03:03.258	COM3_115200	2000-0-0 5:54:26.615	-0,445	0,602	1,441	-109,863	51,270	40,833	3,812	26,845	-22,780	26,958	-3,533	28,858	38,43															
04:03:03.264	COM8_115200	2000-0-0 5:58:48.860	0,689	0,530	1,403	-92,957	6,531	-40,588	1,132	-34,184	77,970	-48,158	62,258	41,300	35,22															
04:03:03.279	COM3_115200	2000-0-0 5:54:26.635	-0,586	0,584	1,412	-105,408	37,720	41,260	2,291	27,565	-21,775	25,450	-5,167	27,033	38,24															
04:03:03.286	COM8_115200	2000-0-0 5:58:48.880	0,613	0,589	1,497	-98,816	8,972	-45,410	-0,016	-33,904	76,954	-48,158	62,258	41,300	35,18															
04:03:03.292	COM3_115200	2000-0-0 5:54:26.655	-0,543	0,715	1,404	-105,286	13,428	35,645	0,829	27,872	-20,869	23,858	-6,825	25,117	38,37															
04:03:03.304	COM8_115200	2000-0-0 5:58:48.900	0,553	0,609	1,580	-110,901	0,061	-47,607	-1,291	-33,734	75,850	-48,158	62,258	41,300	35,12															
04:03:03.316	COM3_115200	2000-0-0 5:54:26.675	-0,391	0,748	1,535	-122,864	6,042	35,889	-0,840	28,070	-20,006	22,467	-8,408	22,817	38,37															
04:03:03.330	COM8_115200	2000-0-0 5:58:48.920	0,614	0,626	1,639	-113,647	-9,033	-46,631	-2,648	-33,772	74,685	-48,158	62,258	41,300	35,15															
04:03:03.335	COM3_115200	2000-0-0 5:54:26.695	-0,352	0,719	1,588	-124,146	19,836	39,551	-2,604	28,334	-19,116	21,133	-9,950	20,425	38,31															
04:03:03.351	COM8_115200	2000-0-0 5:58:48.940	0,542	0,652	1,718	-126,770	-9,094	-47,546	-4,158	-33,871	73,570	-48,158	62,258	41,300	35,31															
04:03:03.356	COM3_115200	2000-0-0 5:54:26.715	-0,413	0,746	1,579	-119,812	23,621	31,128	-4,334	28,674	-18,364	19,875	-11,392	17,675	38,37															
04:03:03.378	COM3_115200	2000-0-0 5:54:26.735	-0,307	0,831	1,745	-116,821	37,781	30,029	-5,988	29,163	-17,672	18,658	-12,825	14,825	38,43															
04:03:03.383	COM8_115200	2000-0-0 5:58:48.960	0,482	0,639	1,683	-139,587	0,610	-43,457	-5,949	-33,876	72,477	-48,158	62,258	41,300	35,31															
04:03:03.384	COM8_115200	2000-0-0 5:58:48.980	0,377	0,890	1,655	-144,653	16,113	-22,888	-7,971	-33,657	71,642	-48,158	62,258	41,300	35,22															
04:03:03.394	COM3_115200	2000-0-0 5:54:26.755	-0,512	0,728	1,678	-132,141	30,334	22,034	-7,949	29,839	-17,139	17,625	-14,133	11,925	38,43															
04:03:03.403	COM8_115200	2000-0-0 5:58:49.000	0,522	0,562	1,867	-211,243	-2,441	-33,386	-11,036	-33,398	70,895	-48,158	62,258	41,300	35,34															
04:03:03.414	COM3_115200	2000-0-0 5:54:26.775	-0,405	0,653	1,835	-103,638	-13,977	23,193	-9,569	29,773	-16,556	16,517	-15,300	9,050	38,50															
04:03:03.432	COM8_115200	2000-0-0 5:58:49.020	0,246	0,339	1,748	-64,819	-1,526	-14,526	-12,799	-33,212	70,164	-48,158	62,258	41,300	35,15															
04:03:03.437	COM3_115200	2000-0-0 5:54:26.795	-0,363	0,735	1,831	-80,750	-16,052	28,015	-10,585	29,333	-15,793	15,708	-16,300	6,208	38,24															
04:03:03.452	COM8_115200	2000-0-0 5:58:49.040	0,549	0,735	1,921	-37,170	29,907	-31,921	-12,783	-32,844	69,307	-48,158	62,258	41,300	35,12															
04:03:03.463	COM3_115200	2000-0-0 5:54:26.815	-0,363	0,715	1,749	-67,200	-15,259	28,320	-11,288	28,976	-15,007	14,967	-17,050	3,500	38,43															
04:03:03.473	COM3_115200	2000-0-0 5:54:26.835	-0,181	0,744	1,877	-56,702	1,343	34,851	-11,662	28,817	-14,183	14,300	-17,650	0,867	38,31															
04:03:03.478	COM8_115200	2000-0-0 5:58:49.060	0,419	0,637	1,913	-7,446	33,691	-28,320	-12,431	-32,086	68,467	-48,158	62,258	41,300	35,25															
04:03:03.492	COM8_115200	2000-0-0 5:58:49.080	0,397	0,705	1,988	-7,385	0,610	-36,072	-11,711	-31,718	67,593	-48,158	62,258	41,300	35,00															
04:03:03.496	COM3_115200	2000-0-0 5:54:26.855	-0,385	0,696	1,894	-48,950	22,095	23,865	-11,986	29,092	-13,535	13,575	-18,142	-1,317	38,31															
04:03:03.539	COM8_115200	2000-0-0 5:58:49.100	0,475	0,659	2,022	-14,160	-13,184	-28,259	-11,179	-31,849	66,934	-48,158	62,258	41,300	35,28															
04:03:03.541	COM3_115200	2000-0-0 5:54:26.875	-0,314	0,684	1,800	-31,738	15,747	15,137	-12,145	29,323	-13,129	12,925	-18,558	-3,217	38,31															
04:03:03.543	COM3_115200	2000-0-0 5:54:26.895	-0,387	0,792	1,775	-13,000	-13,794	9,460	-11,981	29,114	-12,816	12,383	-18,867	-4,825	38,37															
04:03:03.552	COM8_115200	2000-0-0 5:58:49.120	0,591	0,698	1,893	5,676	-9,949	-15,015	-10,618	-31,959	66,511	-48,158	62,258	41,300	35,15															
04:03:03.553	COM8_115200	2000-0-0 5:58:49.140	0,388	0,894	1,971	7,385	-11,169	-8,057	-9,877	-31,948	66,292	-48,158	62,258	41,300	35,18															
04:03:03.565	COM3_115200	2000-0-0 5:54:26.915	-0,221	0,931	1,930	-18,127	5,310	10,010	-11,673	28,795	-12,458	12,000	-19,042	-6,083	38,50															
04:03:03.567	COM8_115200	2000-0-0 5:58:49.160	0,446	0,898	1,908	-16,846	-25,024	-3,052	-9,591	-32,157	66,253	-48,158	62,258	41,300	35,09															
04:03:03.574	COM3_115200	2000-0-0 5:54:26.935	-0,563	0,931	1,871	-28,870	14,832	9,155	-11,733	28,872	-12,283	11,742	-19,158	-7,058	38,37															
04:03:03.585	COM8_115200	2000-0-0 5:58:49.180	0,664	0,823	1,786	-23,926	-29,968	-0,183	-9,745	-32,547	66,346	-48,158	62,258	41,300	35,00															
04:03:03.595	COM3_115200	2000-0-0 5:54:26.955	-0,370	0,897	1,823	-31,006	13,672	6,653	-11,821	28,954	-12,085	11,508	-19,325	-7,650	38,50															
04:03:03.614	COM8_115200	2000-0-0 5:58:49.200	0,420	0,879	1,863	-36,377	-29,419	-10,254	-9,937	-32,855	66,292	-48,158	62,258	41,300	35,12															
