Time	COM	Chip Time()	Acceleration X(g)	Acceleration Y(g)	Acceleration Z(g)	Angular velocity X(/s)	Angular velocity Y(/s)	Angular velocity Z(/s)	Angle X()	Angle Y()	Angle Z()	Magnetic field X(?t)	Magnetic field Y(?t)	Magnetic field Z(?t)	Temperature(?)	Pressure(Pa)	Height(m)	Longitude()	Latitude()	GPS ground speed(km)	GPS course()	GPS height(m)	Number of satellites()	Position location()	Horizontal position()	Vertical position()	Quaternions 0()	Quaternions 1()	Quaternions 2()	Quaternions 3()
21:20:08.801	COM3	2000-0-0 16:24:3.575	0,456	-0,804	2,316	15,686	-4,639	2,136	-19,902	-9,075	-74,460	3,875	72,433	31,550	41,15															
21:20:08.811	COM3	2000-0-0 16:24:3.595	0,477	-0,808	2,311	10,681	4,517	4,211	-19,655	-9,003	-74,399	3,875	72,433	31,550	41,08															
21:20:08.815	COM8	2000-0-0 16:21:45.835	0,223	0,928	2,270	-10,376	-10,315	8,118	22,253	-5,235	-158,912				38,69															
21:20:08.828	COM8	2000-0-0 16:21:45.855	0,252	0,944	2,279	-8,911	-13,916	8,179	22,077	-5,548	-158,857				38,75															
21:20:08.832	COM3	2000-0-0 16:24:3.615	0,488	-0,823	2,319	8,423	4,944	2,319	-19,473	-8,948	-74,355	3,875	72,433	31,550	41,05															
21:20:08.848	COM3	2000-0-0 16:24:3.635	0,488	-0,814	2,351	5,859	13,733	0,305	-19,325	-8,762	-74,405	3,875	72,433	31,550	41,11															
21:20:08.854	COM8	2000-0-0 16:21:45.875	0,238	0,911	2,255	-8,606	-10,315	8,362	21,901	-5,845	-158,802				38,81															
21:20:08.873	COM8	2000-0-0 16:21:45.895	0,272	0,915	2,242	-8,240	-9,399	9,399	21,731	-6,070	-158,698				38,75															
21:20:08.877	COM3	2000-0-0 16:24:3.655	0,477	-0,795	2,358	1,526	15,076	-0,366	-19,248	-8,498	-74,504	3,875	72,433	31,550	41,05															
21:20:08.885	COM8	2000-0-0 16:21:45.915	0,275	0,923	2,250	-11,719	-6,958	10,437	21,533	-6,301	-158,577				38,75															
21:20:08.892	COM3	2000-0-0 16:24:3.675	0,471	-0,790	2,323	-2,563	16,296	-1,770	-19,259	-8,273	-74,614	3,875	72,433	31,550	41,08															
21:20:08.904	COM8	2000-0-0 16:21:45.935	0,250	0,913	2,214	-17,151	0,854	12,024	21,226	-6,405	-158,373				38,75															
21:20:08.910	COM3	2000-0-0 16:24:3.695	0,427	-0,788	2,298	-2,747	33,142	-3,784	-19,281	-7,817	-74,844	3,875	72,433	31,550	41,08															
21:20:08.925	COM8	2000-0-0 16:21:45.955	0,290	0,910	2,258	-22,644	-2,502	13,000	20,814	-6,504	-158,137				38,72															
21:20:08.929	COM3	2000-0-0 16:24:3.715	0,495	-0,799	2,351	1,343	36,194	-7,141	-19,243	-7,218	-75,185	3,875	72,433	31,550	40,99															
21:20:08.950	COM3	2000-0-0 16:24:3.735	0,417	-0,775	2,403	1,526	37,842	-10,620	-19,144	-6,625	-75,619	3,875	72,433	31,550	41,11															
21:20:08.952	COM8	2000-0-0 16:21:45.975	0,222	0,893	2,328	-25,696	-3,601	14,038	20,303	-6,652	-157,901				38,78															
21:20:08.965	COM8	2000-0-0 16:21:45.995	0,305	0,916	2,273	-23,560	-11,475	11,963	19,808	-6,883	-157,720				38,81															
21:20:08.969	COM3	2000-0-0 16:24:3.755	0,421	-0,802	2,410	4,456	27,344	-10,925	-19,039	-6,141	-76,025	3,875	72,433	31,550	41,08															
21:20:08.992	COM8	2000-0-0 16:21:46.015	0,290	0,898	2,269	-21,240	-8,240	11,108	19,380	-7,152	-157,577				38,65															
21:20:08.997	COM3	2000-0-0 16:24:3.775	0,377	-0,796	2,414	8,606	21,118	-13,000	-18,847	-5,867	-76,382	3,875	72,433	31,550	41,21															
21:20:09.027	COM3	2000-0-0 16:24:3.795	0,534	-0,767	2,447	13,000	25,940	-16,357	-18,567	-5,543	-76,822	3,875	72,433	31,550	41,15															
21:20:09.028	COM3	2000-0-0 16:24:3.815	0,411	-0,778	2,525	7,568	22,400	-13,489	-18,309	-5,219	-77,278	3,875	72,433	31,550	41,15															
21:20:09.033	COM8	2000-0-0 16:21:46.035	0,301	0,923	2,284	-16,663	1,282	10,986	19,023	-7,224	-157,374				38,65															
21:20:09.053	COM3	2000-0-0 16:24:3.835	0,439	-0,868	2,391	-0,305	2,014	-9,888	-18,259	-5,158	-77,531	3,875	72,433	31,550	41,11															
21:20:09.054	COM8	2000-0-0 16:21:46.055	0,307	0,947	2,277	-11,230	0,549	9,644	18,770	-7,245	-157,154				38,75															
21:20:09.055	COM8	2000-0-0 16:21:46.075	0,330	0,967	2,282	-7,080	0,000	7,874	18,644	-7,295	-156,989				38,97															
21:20:09.066	COM3	2000-0-0 16:24:3.855	0,438	-0,881	2,282	-0,671	-4,822	-6,042	-18,265	-5,345	-77,640	3,875	72,433	31,550	40,96															
21:20:09.068	COM8	2000-0-0 16:21:46.095	0,286	0,985	2,275	-3,235	1,770	8,484	18,567	-7,322	-156,835				38,65															
21:20:09.083	COM8	2000-0-0 16:21:46.115	0,298	0,959	2,248	-0,549	8,850	8,240	18,561	-7,262	-156,649				38,75															
21:20:09.090	COM3	2000-0-0 16:24:3.875	0,533	-0,847	2,284	-1,343	5,005	-5,920	-18,276	-5,422	-77,756	3,875	72,433	31,550	41,05															
21:20:09.105	COM8	2000-0-0 16:21:46.135	0,312	0,930	2,283	0,488	14,160	9,094	18,583	-7,070	-156,396				38,72															
21:20:09.108	COM3	2000-0-0 16:24:3.895	0,497	-0,791	2,309	-6,348	21,912	-5,432	-18,358	-5,235	-77,953	3,875	72,433	31,550	41,08															
21:20:09.137	COM3	2000-0-0 16:24:3.915	0,457	-0,800	2,402	-11,841	28,625	-4,395	-18,539	-4,790	-78,223	3,875	72,433	31,550	41,05															
21:20:09.140	COM8	2000-0-0 16:21:46.155	0,310	0,923	2,336	1,953	15,503	11,353	18,622	-6,839	-156,099				38,78															
21:20:09.143	COM8	2000-0-0 16:21:46.175	0,328	0,925	2,334	5,188	11,353	11,963	18,715	-6,680	-155,792				38,69															
21:20:09.148	COM3	2000-0-0 16:24:3.935	0,441	-0,829	2,404	-15,564	22,827	-5,066	-18,814	-4,422	-78,464	3,875	72,433	31,550	41,05															
21:20:09.163	COM8	2000-0-0 16:21:46.195	0,335	0,915	2,310	8,301	11,963	11,963	18,858	-6,553	-155,490				38,75															
21:20:09.167	COM3	2000-0-0 16:24:3.955	0,550	-0,842	2,391	-15,686	22,339	-7,080	-19,122	-4,125	-78,723	3,875	72,433	31,550	41,02															
21:20:09.187	COM8	2000-0-0 16:21:46.215	0,343	0,908	2,329	10,864	17,395	11,597	19,056	-6,334	-155,160				38,75															
21:20:09.194	COM3	2000-0-0 16:24:3.975	0,536	-0,832	2,420	-17,517	27,039	-5,188	-19,418	-3,752	-79,019	3,875	72,433	31,550	41,18															
21:20:09.203	COM8	2000-0-0 16:21:46.235	0,290	0,984	2,358	16,785	6,531	5,005	19,341	-6,163	-154,924				38,72															
21:20:09.217	COM3	2000-0-0 16:24:3.995	0,312	-0,902	2,458	-24,841	8,301	3,601	-19,841	-3,516	-79,129	3,875	72,433	31,550	41,08															
21:20:09.228	COM3	2000-0-0 16:24:4.015	0,309	-0,956	2,313	-26,672	-10,437	18,433	-20,424	-3,615	-78,843	3,875	72,433	31,550	41,05															
21:20:09.238	COM8	2000-0-0 16:21:46.255	0,404	1,023	2,271	21,790	-4,517	-6,531	19,786	-6,180	-154,979				38,75															
21:20:09.244	COM8	2000-0-0 16:21:46.275	0,321	1,005	2,326	25,269	-5,005	-16,479	20,303	-6,202	-155,242				38,72															
21:20:09.252	COM3	2000-0-0 16:24:4.035	0,533	-0,868	2,318	-17,700	-14,526	18,250	-20,847	-3,812	-78,387	3,875	72,433	31,550	41,18															
21:20:09.264	COM8	2000-0-0 16:21:46.295	0,294	0,943	2,315	33,447	-5,005	-25,208	20,984	-6,174	-155,709				38,59															
21:20:09.269	COM3	2000-0-0 16:24:4.055	0,418	-0,784	2,424	-15,198	-7,813	23,071	-21,160	-3,917	-77,904	3,875	72,433	31,550	41,05															
21:20:09.283	COM8	2000-0-0 16:21:46.315	0,339	0,878	2,323	36,865	-3,052	-28,015	21,780	-6,070	-156,259				38,59															
21:20:09.296	COM3	2000-0-0 16:24:4.075	0,377	-0,817	2,347	-20,203	-11,658	26,428	-21,577	-4,016	-77,349	3,875	72,433	31,550	41,15															
21:20:09.305	COM8	2000-0-0 16:21:46.335	0,211	0,898	2,330	37,231	-7,263	-28,442	22,566	-5,944	-156,808				38,72															
21:20:09.321	COM3	2000-0-0 16:24:4.095	0,376	-0,882	2,343	-17,212	-19,348	27,344	-21,967	-4,186	-76,718	3,875	72,433	31,550	41,15															
21:20:09.325	COM8	2000-0-0 16:21:46.355	0,337	0,894	2,228	38,879	-14,099	-27,832	23,412	-5,966	-157,440				38,78															
21:20:09.342	COM3	2000-0-0 16:24:4.115	0,462	-0,833	2,326	-13,977	-5,676	23,682	-22,275	-4,252	-76,152	3,875	72,433	31,550	41,18															
21:20:09.348	COM3	2000-0-0 16:24:4.135	0,428	-0,829	2,355	-12,878	-7,141	18,433	-22,533	-4,274	-75,740	3,875	72,433	31,550	41,15															
21:20:09.352	COM8	2000-0-0 16:21:46.375	0,237	0,819	2,264	32,043	-3,235	-20,142	24,115	-5,927	-157,928				38,72															
21:20:09.384	COM8	2000-0-0 16:21:46.395	0,321	0,883	2,252	25,024	2,075	-13,672	24,675	-5,773	-158,192				38,65															
21:20:09.394	COM3	2000-0-0 16:24:4.155	0,378	-0,823	2,310	-14,221	-15,076	18,311	-22,819	-4,400	-75,306	3,875	72,433	31,550	41,15															
21:20:09.395	COM3	2000-0-0 16:24:4.175	0,367	-0,841	2,262	-11,230	-22,827	16,785	-23,077	-4,719	-74,811	3,875	72,433	31,550	41,18															
21:20:09.417	COM8	2000-0-0 16:21:46.415	0,292	0,899	2,246	17,090	-1,099	-9,338	25,054	-5,724	-158,395				38,78															
21:20:09.418	COM8	2000-0-0 16:21:46.435	0,303	0,918	2,207	11,169	-0,427	-5,920	25,313	-5,691	-158,538				38,69															
21:20:09.423	COM3	2000-0-0 16:24:4.195	0,388	-0,843	2,337	-2,747	-22,888	12,878	-23,181	-5,048	-74,366	3,875	72,433	31,550	41,15															
21:20:09.426	COM3	2000-0-0 16:24:4.215	0,425	-0,863	2,438	-0,366	-48,096	11,230	-23,198	-5,707	-73,856	3,875	72,433	31,550	41,08															
21:20:09.430	COM8	2000-0-0 16:21:46.455	0,299	0,910	2,190	6,897	0,549	-4,272	25,444	-5,663	-158,626				38,69															
21:20:09.443	COM8	2000-0-0 16:21:46.475	0,313	0,907	2,218	2,686	0,244	-3,357	25,488	-5,641	-158,698				38,72															
21:20:09.455	COM3	2000-0-0 16:24:4.235	0,403	-0,789	2,356	-3,479	-61,707	10,986	-23,275	-6,718	-73,180	3,875	72,433	31,550	41,11															
21:20:09.463	COM8	2000-0-0 16:21:46.495	0,235	0,911	2,206	2,563	5,066	-2,319	25,488	-5,576	-158,719				38,75															
21:20:09.475	COM3	2000-0-0 16:24:4.255	0,416	-0,796	2,164	-4,211	-56,641	7,568	-23,401	-7,800	-72,515	3,875	72,433	31,550	41,05															
21:20:09.484	COM8	2000-0-0 16:21:46.515	0,265	0,929	2,164	3,601	4,150	-2,563	25,510	-5,488	-158,719				38,69															
21:20:09.489	COM3	2000-0-0 16:24:4.275	0,449	-0,794	2,041	7,263	-18,677	3,174	-23,346	-8,377	-72,153	3,875	72,433	31,550	41,18															
21:20:09.504	COM8	2000-0-0 16:21:46.535	0,276	0,906	2,166	3,113	6,531	-4,272	25,543	-5,383	-158,752				38,65															
21:20:09.508	COM3	2000-0-0 16:24:4.295	0,496	-0,830	2,247	12,390	-10,986	-1,648	-23,077	-8,591	-72,092	3,875	72,433	31,550	41,05															
21:20:09.523	COM8	2000-0-0 16:21:46.555	0,276	0,918	2,178	2,136	7,935	-1,953	25,554	-5,246	-158,741				38,72															
21:20:09.528	COM3	2000-0-0 16:24:4.315	0,423	-0,843	2,300	-0,854	-17,090	-2,441	-22,967	-8,910	-72,004	3,875	72,433	31,550	41,11															
21:20:09.545	COM8	2000-0-0 16:21:46.575	0,249	0,949	2,177	0,183	10,681	-0,427	25,521	-5,070	-158,665				38,56															
21:20:09.554	COM3	2000-0-0 16:24:4.335	0,441	-0,837	2,153	-4,395	-15,747	-2,136	-23,027	-9,229	-71,917	3,875	72,433	31,550	41,08															
21:20:09.569	COM8	2000-0-0 16:21:46.595	0,271	0,968	2,197	-0,122	5,737	-1,831	25,483	-4,944	-158,621				38,69															
21:20:09.574	COM3	2000-0-0 16:24:4.355	0,448	-0,859	2,095	0,977	-5,859	-2,014	-23,038	-9,454	-71,867	3,875	72,433	31,550	41,11															
21:20:09.587	COM3	2000-0-0 16:24:4.375	0,433	-0,844	2,179	5,249	4,395	-5,798	-22,917	-9,481	-71,955	3,875	72,433	31,550	41,18															
21:20:09.588	COM8	2000-0-0 16:21:46.615	0,289	0,946	2,202	0,549	5,249	-2,441	25,461	-4,856	-158,621				38,75															
21:20:09.604	COM8	2000-0-0 16:21:46.635	0,292	0,929	2,207	0,854	9,521	-1,587	25,439	-4,719	-158,588				38,84															
21:20:09.608	COM3	2000-0-0 16:24:4.395	0,339	-0,806	2,350	3,662	-7,263	-5,798	-22,764	-9,536	-72,065	3,875	72,433	31,550	41,08															
21:20:09.623	COM8	2000-0-0 16:21:46.655	0,309	0,952	2,227	-0,366	6,470	-0,793	25,417	-4,587	-158,533				38,59															
21:20:09.628	COM3	2000-0-0 16:24:4.415	0,362	-0,799	2,342	2,380	-45,898	-5,737	-22,714	-10,146	-71,933	3,875	72,433	31,550	41,08															
21:20:09.645	COM8	2000-0-0 16:21:46.675	0,253	0,961	2,230	-2,014	2,075	-1,831	25,356	-4,526	-158,527				38,65															
21:20:09.655	COM3	2000-0-0 16:24:4.435	0,816	-0,806	2,307	7,996	-95,886	-7,874	-22,665	-11,591	-71,466	3,875	72,433	31,550	41,08															
21:20:09.675	COM3	2000-0-0 16:24:4.455	0,520	-0,782	2,195	1,160	-58,167	-10,315	-22,621	-13,315	-70,939	3,875	72,433	31,550	41,11															
21:20:09.679	COM8	2000-0-0 16:21:46.695	0,215	0,958	2,201	-1,221	-10,315	-4,272	25,307	-4,609	-158,626				38,72															
21:20:09.686	COM3	2000-0-0 16:24:4.475	0,333	-0,788	2,034	4,761	43,884	-3,723	-22,489	-13,030	-71,147	3,875	72,433	31,550	41,18															
21:20:09.699	COM8	2000-0-0 16:21:46.715	0,303	0,957	2,166	0,488	-25,574	-4,700	25,291	-4,944	-158,879				38,69															
21:20:09.704	COM8	2000-0-0 16:21:46.735	0,301	0,940	2,224	-1,465	-34,851	-3,784	25,263	-5,499	-159,247				38,75															
21:20:09.709	COM3	2000-0-0 16:24:4.495	0,486	-0,902	2,149	12,024	13,977	-3,906	-22,209	-12,546	-71,466	3,875	72,433	31,550	41,11															
21:20:09.725	COM3	2000-0-0 16:24:4.515	0,487	-0,791	2,263	14,893	17,639	-2,136	-21,852	-12,277	-71,609	3,875	72,433	31,550	41,21															
21:20:09.754	COM8	2000-0-0 16:21:46.755	0,250	0,954	2,194	0,366	-29,785	-0,488	25,280	-6,136	-159,582				38,81															
21:20:09.758	COM8	2000-0-0 16:21:46.775	0,206	0,911	2,203	1,404	-16,174	1,465	25,274	-6,498	-159,741				38,81															
21:20:09.763	COM3	2000-0-0 16:24:4.535	0,572	-0,861	2,354	12,512	4,822	-3,967	-21,528	-12,107	-71,757	3,875	72,433	31,550	41,11															
21:20:09.794	COM3	2000-0-0 16:24:4.555	0,430	-0,825	2,287	5,371	27,283	-1,160	-21,330	-11,777	-71,917	3,875	72,433	31,550	41,11															
21:20:09.795	COM3	2000-0-0 16:24:4.575	0,480	-0,873	2,208	4,456	26,917	-1,953	-21,187	-11,255	-72,175	3,875	72,433	31,550	41,11															
21:20:09.799	COM8	2000-0-0 16:21:46.795	0,271	0,954	2,210	-0,427	-27,710	3,601	25,280	-6,927	-159,873				38,72															
21:20:09.827	COM3	2000-0-0 16:24:4.595	0,517	-0,824	2,262	8,606	25,024	-3,784	-20,984	-10,800	-72,411	3,875	72,433	31,550	41,15															
21:20:09.828	COM3	2000-0-0 16:24:4.615	0,413	-0,845	2,336	7,568	23,560	-3,540	-20,775	-10,404	-72,664	3,875	72,433	31,550	41,15															
21:20:09.829	COM8	2000-0-0 16:21:46.815	0,267	0,929	2,197	1,221	-31,311	6,042	25,274	-7,520	-160,043				38,75															
21:20:09.830	COM8	2000-0-0 16:21:46.835	0,223	0,962	2,178	1,587	-20,996	7,568	25,302	-8,031	-160,131				38,75															
21:20:09.833	COM8	2000-0-0 16:21:46.855	0,276	0,950	2,163	3,601	-20,081	7,507	25,334	-8,421	-160,175				38,72															
21:20:09.849	COM8	2000-0-0 16:21:46.875	0,295	0,950	2,126	0,244	-20,142	8,606	25,345	-8,866	-160,225				38,69															
21:20:09.854	COM3	2000-0-0 16:24:4.635	0,425	-0,823	2,354	5,005	24,353	-3,113	-20,605	-9,981	-72,894	3,875	72,433	31,550	41,05															
21:20:09.865	COM3	2000-0-0 16:24:4.655	0,424	-0,826	2,293	7,874	23,804	-5,249	-20,435	-9,591	-73,147	3,875	72,433	31,550	41,05															
21:20:09.869	COM8	2000-0-0 16:21:46.895	0,221	0,939	2,156	-2,991	-4,761	11,169	25,269	-9,141	-160,131				38,78															
21:20:09.884	COM8	2000-0-0 16:21:46.915	0,238	0,951	2,187	-11,902	-5,432	14,038	25,049	-9,261	-159,911				38,72															
21:20:09.887	COM3	2000-0-0 16:24:4.675	0,370	-0,822	2,297	14,526	30,090	-8,728	-20,138	-9,113	-73,493	3,875	72,433	31,550	41,18															
21:20:09.910	COM8	2000-0-0 16:21:46.935	0,264	0,923	2,184	-18,982	-18,921	17,273	24,670	-9,608	-159,730				38,78															
21:20:09.918	COM3	2000-0-0 16:24:4.695	0,328	-0,822	2,368	19,592	13,794	-8,911	-19,737	-8,806	-73,801	3,875	72,433	31,550	41,08															
21:20:09.925	COM3	2000-0-0 16:24:4.715	0,253	-0,828	2,334	26,672	-1,160	-14,526	-19,232	-8,833	-74,064	3,875	72,433	31,550	41,02															
21:20:09.930	COM8	2000-0-0 16:21:46.955	0,290	0,898	2,180	-23,560	-17,822	21,606	24,192	-10,080	-159,532				38,75															
21:20:09.943	COM8	2000-0-0 16:21:46.975	0,259	0,877	2,243	-29,541	-8,484	27,344	23,571	-10,448	-159,159				38,69															
21:20:09.947	COM3	2000-0-0 16:24:4.735	0,323	-0,826	2,325	41,321	-20,691	-15,808	-18,501	-9,168	-74,284	3,875	72,433	31,550	41,08															
21:20:09.962	COM8	2000-0-0 16:21:46.995	0,235	0,917	2,286	-33,630	-15,686	30,090	22,830	-10,838	-158,698				38,75															
21:20:09.966	COM3	2000-0-0 16:24:4.755	0,390	-0,748	2,438	56,152	-41,077	-19,348	-17,496	-9,915	-74,399	3,875	72,433	31,550	41,15															
21:20:09.986	COM8	2000-0-0 16:21:47.015	0,310	0,880	2,208	-33,813	-26,245	30,579	22,083	-11,426	-158,313				38,78															
21:20:09.990	COM3	2000-0-0 16:24:4.775	0,529	-0,670	2,622	57,251	-49,683	-25,085	-16,298	-10,920	-74,575	3,875	72,433	31,550	41,15															
21:20:10.007	COM3	2000-0-0 16:24:4.795	0,451	-0,646	2,636	39,429	-63,049	-32,166	-15,326	-12,162	-74,822	3,875	72,433	31,550	41,08															
21:20:10.032	COM3	2000-0-0 16:24:4.815	0,286	-0,735	2,364	20,020	-64,392	-33,264	-14,766	-13,530	-75,135	3,875	72,433	31,550	41,15															
21:20:10.040	COM8	2000-0-0 16:21:47.035	0,310	0,813	2,182	-32,410	-21,057	35,828	21,346	-12,068	-157,863				38,75															
21:20:10.042	COM8	2000-0-0 16:21:47.055	0,283	0,869	2,239	-29,480	-11,475	43,274	20,594	-12,546	-157,181				38,65															
21:20:10.044	COM8	2000-0-0 16:21:47.075	0,332	0,917	2,209	-26,001	-11,658	46,082	19,896	-12,975	-156,390				38,72															
21:20:10.048	COM3	2000-0-0 16:24:4.835	0,485	-0,850	2,140	15,259	-79,529	-35,034	-14,403	-15,051	-75,449	3,875	72,433	31,550	40,99															
21:20:10.063	COM8	2000-0-0 16:21:47.095	0,304	0,877	2,216	-19,958	-3,113	50,110	19,270	-13,343	-155,506				38,88															
21:20:10.065	COM3	2000-0-0 16:24:4.855	0,505	-0,768	2,084	12,695	-58,838	-42,236	-14,052	-16,567	-75,855	3,875	72,433	31,550	41,11															
21:20:10.084	COM8	2000-0-0 16:21:47.115	0,362	0,858	2,258	-12,695	2,869	54,077	18,754	-13,579	-154,479				38,72															
21:20:10.089	COM3	2000-0-0 16:24:4.875	0,494	-0,701	2,070	3,723	-1,282	-53,284	-13,700	-17,128	-76,729	3,875	72,433	31,550	40,96															
21:20:10.127	COM8	2000-0-0 16:21:47.135	0,373	0,899	2,283	-4,333	2,808	57,983	18,375	-13,788	-153,342				38,72															
21:20:10.128	COM8	2000-0-0 16:21:47.155	0,409	0,819	2,235	2,686	9,583	63,843	18,127	-13,958	-152,111				38,62															
21:20:10.131	COM3	2000-0-0 16:24:4.895	0,548	-0,701	2,149	-2,625	31,982	-63,477	-13,376	-16,908	-78,052	3,875	72,433	31,550	41,15															
21:20:10.133	COM3	2000-0-0 16:24:4.915	0,588	-0,718	2,325	-8,545	41,870	-69,458	-13,112	-16,353	-79,623	3,875	72,433	31,550	41,05															
21:20:10.158	COM3	2000-0-0 16:24:4.935	0,709	-0,698	2,479	-17,883	19,653	-65,125	-13,046	-16,018	-81,107	3,875	72,433	31,550	41,15															
21:20:10.163	COM8	2000-0-0 16:21:47.175	0,396	0,826	2,262	9,277	15,869	70,740	17,957	-14,057	-150,688				38,59															
21:20:10.165	COM8	2000-0-0 16:21:47.195	0,439	0,828	2,258	13,062	10,620	74,402	17,858	-14,183	-149,167				38,72															
21:20:10.169	COM3	2000-0-0 16:24:4.955	0,690	-0,661	2,554	-29,297	-10,315	-65,491	-13,211	-16,271	-82,436	3,875	72,433	31,550	41,15															
21:20:10.183	COM8	2000-0-0 16:21:47.215	0,509	0,803	2,224	17,517	3,540	76,782	17,836	-14,480	-147,651				38,69															
21:20:10.184	COM3	2000-0-0 16:24:4.975	0,526	-0,648	2,432	-39,612	-6,470	-65,674	-13,618	-16,749	-83,705	3,875	72,433	31,550	40,99															
21:20:10.203	COM8	2000-0-0 16:21:47.235	0,502	0,809	2,264	20,508	3,784	77,759	17,880	-14,826	-146,102				38,75															
21:20:10.206	COM3	2000-0-0 16:24:4.995	0,583	-0,674	2,289	-41,199	-3,479	-64,514	-14,112	-17,073	-84,996	3,875	72,433	31,550	41,05															
21:20:10.227	COM8	2000-0-0 16:21:47.255	0,534	0,771	2,270	24,841	-1,221	79,651	17,957	-15,200	-144,536				38,69															
21:20:10.230	COM3	2000-0-0 16:24:5.015	0,630	-0,618	2,268	-37,720	-5,737	-66,223	-14,529	-17,452	-86,287	3,875	72,433	31,550	41,08															
21:20:10.243	COM8	2000-0-0 16:21:47.275	0,552	0,788	2,252	27,039	-4,822	77,271	18,111	-15,688	-143,036				38,56															
21:20:10.246	COM3	2000-0-0 16:24:5.035	0,686	-0,569	2,305	-34,851	-2,197	-64,880	-14,875	-17,781	-87,589	3,875	72,433	31,550	41,15															
21:20:10.267	COM8	2000-0-0 16:21:47.295	0,560	0,716	2,207	28,320	-8,606	77,576	18,276	-16,238	-141,559				38,72															
21:20:10.271	COM3	2000-0-0 16:24:5.055	0,723	-0,579	2,356	-32,776	-4,089	-65,552	-15,150	-18,127	-88,896	3,875	72,433	31,550	41,11															
21:20:10.282	COM8	2000-0-0 16:21:47.315	0,647	0,689	2,173	27,466	-10,376	79,529	18,419	-16,859	-140,070				38,69															
21:20:10.286	COM3	2000-0-0 16:24:5.075	0,667	-0,691	2,354	-28,137	-9,705	-65,674	-15,348	-18,539	-90,209	3,875	72,433	31,550	41,15															
21:20:10.302	COM8	2000-0-0 16:21:47.335	0,591	0,732	2,199	24,841	-9,155	78,979	18,501	-17,496	-138,571				38,81															
21:20:10.305	COM3	2000-0-0 16:24:5.095	0,711	-0,600	2,338	-22,644	-24,292	-61,157	-15,474	-19,182	-91,357	3,875	72,433	31,550	41,05															
21:20:10.347	COM8	2000-0-0 16:21:47.355	0,601	0,677	2,168	20,142	-1,526	77,637	18,484	-18,001	-137,049				38,72															
21:20:10.348	COM8	2000-0-0 16:21:47.375	0,651	0,667	2,165	14,282	-5,981	77,148	18,347	-18,479	-135,533				38,75															
21:20:10.353	COM3	2000-0-0 16:24:5.115	0,755	-0,534	2,242	-21,240	-25,513	-61,768	-15,529	-19,957	-92,455	3,875	72,433	31,550	41,15															
21:20:10.354	COM3	2000-0-0 16:24:5.135	0,750	-0,566	2,187	-18,860	-16,174	-62,805	-15,518	-20,605	-93,615	3,875	72,433	31,550	41,08															
21:20:10.366	COM3	2000-0-0 16:24:5.155	0,763	-0,564	2,244	-13,306	-17,273	-62,012	-15,381	-21,171	-94,818	3,875	72,433	31,550	41,18															
21:20:10.378	COM8	2000-0-0 16:21:47.395	0,739	0,661	2,186	10,559	-15,564	78,430	18,105	-19,122	-134,050				38,75															
21:20:10.384	COM8	2000-0-0 16:21:47.415	0,696	0,644	2,174	6,042	-8,850	79,529	17,748	-19,764	-132,545				38,75															
21:20:10.388	COM3	2000-0-0 16:24:5.175	0,722	-0,522	2,259	-11,658	-29,114	-62,073	-15,200	-21,912	-95,949	3,875	72,433	31,550	41,05															
21:20:10.421	COM3	2000-0-0 16:24:5.195	0,748	-0,468	2,216	-13,916	-27,222	-63,171	-15,018	-22,731	-97,075	3,875	72,433	31,550	41,08															
21:20:10.425	COM3	2000-0-0 16:24:5.215	0,834	-0,473	2,150	-18,555	-15,808	-66,101	-14,854	-23,368	-98,317	3,875	72,433	31,550	41,08															
21:20:10.427	COM8	2000-0-0 16:21:47.435	0,733	0,637	2,141	4,822	-5,554	77,209	17,331	-20,253	-130,995				38,62															
21:20:10.428	COM8	2000-0-0 16:21:47.455	0,742	0,622	2,119	5,005	-5,432	75,562	16,897	-20,759	-129,490				38,69															
21:20:10.443	COM8	2000-0-0 16:21:47.475	0,815	0,585	2,143	11,108	-5,493	76,599	16,540	-21,242	-127,974				38,88															
21:20:10.446	COM3	2000-0-0 16:24:5.235	0,795	-0,520	2,138	-21,240	-10,254	-65,918	-14,705	-23,846	-99,657	3,875	72,433	31,550	41,08															
21:20:10.464	COM3	2000-0-0 16:24:5.255	0,705	-0,463	2,170	-27,893	-17,822	-67,200	-14,667	-24,390	-100,970	3,875	72,433	31,550	41,15															
21:20:10.469	COM8	2000-0-0 16:21:47.495	0,806	0,551	2,158	14,709	-1,221	79,651	16,221	-21,687	-126,381				38,81															
21:20:10.507	COM3	2000-0-0 16:24:5.275	0,873	-0,350	2,171	-39,246	-18,127	-68,542	-14,793	-25,021	-102,288	3,875	72,433	31,550	41,08															
21:20:10.508	COM3	2000-0-0 16:24:5.295	0,950	-0,354	2,083	-44,434	-12,390	-74,280	-14,974	-25,593	-103,766	3,875	72,433	31,550	41,15															
21:20:10.510	COM8	2000-0-0 16:21:47.515	0,797	0,572	2,126	23,438	5,615	78,979	16,013	-22,000	-124,722				38,65															
21:20:10.527	COM3	2000-0-0 16:24:5.315	0,971	-0,433	2,176	-52,246	-5,249	-72,510	-15,266	-26,054	-105,271	3,875	72,433	31,550	41,08															
21:20:10.531	COM8	2000-0-0 16:21:47.535	0,831	0,575	2,115	28,259	1,282	77,576	15,930	-22,330	-123,096				38,75															
21:20:10.535	COM8	2000-0-0 16:21:47.555	0,857	0,514	2,119	29,541	2,502	78,491	15,897	-22,659	-121,470				38,72															
21:20:10.543	COM3	2000-0-0 16:24:5.335	1,090	-0,447	2,223	-54,749	-13,184	-72,021	-15,656	-26,532	-106,754	3,875	72,433	31,550	41,18															
21:20:10.558	COM8	2000-0-0 16:21:47.575	0,878	0,460	2,125	31,128	-1,160	80,811	15,848	-23,038	-119,817				38,59															
21:20:10.563	COM8	2000-0-0 16:21:47.595	0,874	0,529	2,092	36,438	-14,771	78,796	15,903	-23,599	-118,207				38,72															
21:20:10.571	COM3	2000-0-0 16:24:5.355	1,031	-0,428	2,150	-53,711	-11,719	-67,078	-16,057	-27,131	-108,144	3,875	72,433	31,550	41,15															
21:20:10.592	COM3	2000-0-0 16:24:5.375	0,874	-0,350	2,039	-54,749	0,000	-60,547	-16,490	-27,488	-109,462	3,875	72,433	31,550	41,11															
21:20:10.605	COM3	2000-0-0 16:24:5.395	0,877	-0,431	1,987	-45,898	-13,916	-62,683	-16,820	-27,949	-110,742	3,875	72,433	31,550	40,99															
21:20:10.610	COM8	2000-0-0 16:21:47.615	0,920	0,447	2,097	31,982	-32,043	75,989	15,963	-24,456	-116,768				38,65															
21:20:10.612	COM8	2000-0-0 16:21:47.635	0,917	0,393	2,143	27,771	-31,799	77,576	15,914	-25,439	-115,334				38,69															
21:20:10.622	COM8	2000-0-0 16:21:47.655	0,865	0,392	2,171	23,926	-36,377	76,111	15,771	-26,466	-113,923				38,72															
21:20:10.629	COM3	2000-0-0 16:24:5.415	0,943	-0,379	2,053	-31,433	-33,386	-57,251	-16,957	-28,702	-111,874	3,875	72,433	31,550	41,11															
21:20:10.644	COM8	2000-0-0 16:21:47.675	0,821	0,375	2,100	19,348	-34,912	74,951	15,518	-27,482	-112,516				38,81															
21:20:10.648	COM3	2000-0-0 16:24:5.435	1,018	-0,273	2,115	-22,522	-44,983	-60,913	-16,913	-29,811	-112,841	3,875	72,433	31,550	41,15															
21:20:10.662	COM8	2000-0-0 16:21:47.695	0,852	0,328	2,048	13,000	-36,621	76,904	15,101	-28,482	-111,083				38,65															
21:20:10.668	COM3	2000-0-0 16:24:5.455	0,841	-0,294	2,141	-24,109	-30,029	-58,167	-16,743	-30,756	-113,928	3,875	72,433	31,550	41,15															
21:20:10.683	COM8	2000-0-0 16:21:47.715	0,977	0,293	2,053	9,399	-41,260	78,064	14,557	-29,581	-109,616				38,75															
21:20:10.687	COM3	2000-0-0 16:24:5.475	0,781	-0,276	2,034	-25,085	-7,629	-58,716	-16,545	-31,306	-115,115	3,875	72,433	31,550	41,11															
21:20:10.703	COM8	2000-0-0 16:21:47.735	0,922	0,352	2,125	9,460	-37,903	78,674	13,953	-30,657	-108,100				38,78															
21:20:10.707	COM3	2000-0-0 16:24:5.495	0,918	-0,297	1,913	-17,700	1,404	-62,500	-16,177	-31,558	-116,477	3,875	72,433	31,550	41,15															
21:20:10.723	COM3	2000-0-0 16:24:5.515	0,890	-0,221	2,091	-10,376	4,822	-58,044	-15,606	-31,690	-117,867	3,875	72,433	31,550	41,02															
21:20:10.732	COM8	2000-0-0 16:21:47.755	0,906	0,309	2,056	9,155	-22,766	74,463	13,288	-31,443	-106,545				38,65															
21:20:10.743	COM8	2000-0-0 16:21:47.775	0,949	0,280	2,007	7,080	-20,142	76,416	12,579	-32,069	-104,941				38,75															
21:20:10.750	COM3	2000-0-0 16:24:5.535	0,895	-0,167	2,227	-15,442	-10,986	-61,096	-15,106	-32,009	-119,169	3,875	72,433	31,550	41,11															
21:20:10.763	COM8	2000-0-0 16:21:47.795	1,012	0,257	2,050	8,606	-15,076	77,515	11,788	-32,596	-103,255				38,75															
21:20:10.770	COM3	2000-0-0 16:24:5.555	0,782	-0,214	2,054	-22,400	1,953	-63,110	-14,672	-32,322	-120,569	3,875	72,433	31,550	41,02															
21:20:10.782	COM8	2000-0-0 16:21:47.815	0,985	0,271	2,023	5,737	-0,916	73,914	10,953	-32,899	-101,547				38,69															
21:20:10.785	COM3	2000-0-0 16:24:5.575	0,987	-0,172	1,992	-22,949	9,827	-64,941	-14,238	-32,355	-122,086	3,875	72,433	31,550	41,08															
21:20:10.807	COM8	2000-0-0 16:21:47.835	1,068	0,212	2,052	7,202	25,269	75,012	10,102	-32,772	-99,750				38,78															
21:20:10.812	COM3	2000-0-0 16:24:5.595	0,824	-0,170	2,104	-20,203	-8,484	-69,702	-13,749	-32,569	-123,624	3,875	72,433	31,550	41,18															
21:20:10.825	COM8	2000-0-0 16:21:47.855	0,903	0,166	2,046	1,404	63,538	80,444	9,086	-31,987	-97,751				38,75															
21:20:10.831	COM3	2000-0-0 16:24:5.615	0,970	-0,109	2,197	-29,724	-18,799	-71,716	-13,343	-33,157	-125,145	3,875	72,433	31,550	41,15															
21:20:10.878	COM3	2000-0-0 16:24:5.635	0,990	-0,067	2,044	-33,691	-3,784	-75,134	-12,958	-33,475	-126,843	3,875	72,433	31,550	41,05															
21:20:10.882	COM8	2000-0-0 16:21:47.875	0,873	0,177	2,023	-15,747	59,509	82,520	7,773	-30,872	-95,658				38,65															
21:20:10.884	COM8	2000-0-0 16:21:47.895	0,962	0,136	1,979	-21,423	33,997	80,078	6,367	-30,152	-93,653				38,75															
21:20:10.885	COM8	2000-0-0 16:21:47.915	1,059	0,021	2,173	-10,437	47,974	76,477	5,125	-29,372	-91,774				38,72															
21:20:10.889	COM3	2000-0-0 16:24:5.655	0,885	-0,126	2,005	-36,621	18,188	-79,285	-12,579	-33,569	-128,666	3,875	72,433	31,550	41,02															
21:20:10.890	COM3	2000-0-0 16:24:5.675	1,013	-0,052	2,038	-30,884	-0,061	-80,627	-12,079	-33,552	-130,600	3,875	72,433	31,550	41,21															
21:20:10.901	COM8	2000-0-0 16:21:47.935	0,991	-0,013	2,263	-9,644	66,345	78,491	4,032	-28,268	-89,923				38,62															
21:20:10.907	COM3	2000-0-0 16:24:5.695	1,142	-0,057	1,971	-22,888	-15,137	-83,069	-11,442	-34,003	-132,479	3,875	72,433	31,550	41,02															
21:20:10.923	COM3	2000-0-0 16:24:5.715	1,299	-0,014	2,034	-20,569	-10,681	-78,796	-10,745	-34,453	-134,297	3,875	72,433	31,550	41,11															
21:20:10.928	COM8	2000-0-0 16:21:47.955	0,944	-0,008	2,151	-9,583	57,739	75,989	2,994	-27,037	-88,121				38,75															
21:20:10.945	COM8	2000-0-0 16:21:47.975	0,982	-0,027	2,061	-7,751	20,264	74,951	2,071	-26,373	-86,424				38,78															
21:20:10.949	COM3	2000-0-0 16:24:5.735	1,232	0,010	2,051	-19,043	4,089	-72,815	-10,036	-34,623	-136,071	3,875	72,433	31,550	41,11															
21:20:10.963	COM8	2000-0-0 16:21:47.995	1,131	-0,095	2,116	-2,930	-33,203	71,411	1,274	-26,658	-84,842				38,69															
21:20:10.967	COM3	2000-0-0 16:24:5.755	1,094	-0,012	1,974	-11,475	7,690	-66,895	-9,294	-34,634	-137,730	3,875	72,433	31,550	41,08															
21:20:10.982	COM8	2000-0-0 16:21:48.015	1,016	-0,086	2,226	0,977	-54,626	71,533	0,544	-27,647	-83,260				38,75															
21:20:10.986	COM3	2000-0-0 16:24:5.775	0,932	0,054	1,907	-1,587	-17,883	-63,416	-8,432	-34,843	-139,257	3,875	72,433	31,550	41,11															
21:20:11.003	COM3	2000-0-0 16:24:5.795	0,991	0,092	1,994	6,592	-59,448	-64,026	-7,493	-35,832	-140,587	3,875	72,433	31,550	41,08															
21:20:11.009	COM8	2000-0-0 16:21:48.035	0,960	-0,097	2,128	-2,441	-53,284	71,960	-0,231	-28,713	-81,650				38,75															
21:20:11.023	COM8	2000-0-0 16:21:48.055	0,852	-0,107	2,072	-4,028	-41,870	72,632	-1,082	-29,564	-80,013				38,59															
21:20:11.027	COM3	2000-0-0 16:24:5.815	0,877	0,164	2,011	7,324	-57,312	-64,331	-6,438	-37,090	-141,971	3,875	72,433	31,550	41,15															
21:20:11.057	COM3	2000-0-0 16:24:5.835	0,845	0,208	2,110	0,000	-32,043	-68,787	-5,323	-37,914	-143,547	3,875	72,433	31,550	41,11															
21:20:11.062	COM8	2000-0-0 16:21:48.075	0,927	-0,127	2,021	-4,456	-28,809	73,853	-2,032	-30,152	-78,322				38,75															
21:20:11.063	COM8	2000-0-0 16:21:48.095	1,063	-0,143	2,014	-3,906	-23,132	72,205	-2,955	-30,526	-76,641				38,75															
21:20:11.069	COM3	2000-0-0 16:24:5.855	0,852	0,217	2,011	-3,235	-25,574	-70,801	-4,224	-38,403	-145,239	3,875	72,433	31,550	41,11															
21:20:11.083	COM8	2000-0-0 16:21:48.115	1,057	-0,163	2,072	-4,089	-12,878	70,251	-3,856	-30,707	-75,004				38,69															
21:20:11.085	COM3	2000-0-0 16:24:5.875	0,859	0,214	1,979	-7,080	-32,593	-72,144	-3,175	-38,897	-146,992	3,875	72,433	31,550	41,15															
21:20:11.102	COM3	2000-0-0 16:24:5.895	0,935	0,251	1,943	-8,057	-52,429	-72,876	-2,109	-39,655	-148,771	3,875	72,433	31,550	41,15															
21:20:11.105	COM8	2000-0-0 16:21:48.135	0,982	-0,170	2,085	-8,484	-4,639	70,190	-4,779	-30,679	-73,389				38,84															
21:20:11.122	COM8	2000-0-0 16:21:48.155	0,911	-0,198	2,100	-12,695	-2,258	68,726	-5,784	-30,520	-71,801				38,69															
21:20:11.123	COM3	2000-0-0 16:24:5.915	1,004	0,269	1,913	-8,423	-63,293	-71,716	-1,005	-40,743	-150,601	3,875	72,433	31,550	41,15															
21:20:11.143	COM3	2000-0-0 16:24:5.935	0,922	0,307	1,886	-8,789	-48,035	-70,251	0,088	-41,677	-152,430	3,875	72,433	31,550	41,11															
21:20:11.147	COM8	2000-0-0 16:21:48.175	0,924	-0,286	2,084	-13,184	-16,663	70,068	-6,872	-30,547	-70,197				38,75															
21:20:11.164	COM3	2000-0-0 16:24:5.955	0,918	0,287	1,806	-8,240	-31,189	-72,937	1,302	-42,171	-154,380	3,875	72,433	31,550	41,11															
21:20:11.169	COM8	2000-0-0 16:21:48.195	0,974	-0,311	2,113	-11,230	-17,883	67,383	-7,888	-30,668	-68,604				38,65															
21:20:11.183	COM8	2000-0-0 16:21:48.215	0,919	-0,341	2,188	-10,803	-4,822	67,749	-8,877	-30,608	-67,055				38,72															
21:20:11.185	COM3	2000-0-0 16:24:5.975	0,938	0,330	1,869	-9,399	-33,264	-70,557	2,488	-42,572	-156,302	3,875	72,433	31,550	41,05															
21:20:11.203	COM8	2000-0-0 16:21:48.235	0,948	-0,367	2,063	-14,221	3,601	65,308	-9,860	-30,289	-65,566				38,78															
21:20:11.245	COM3	2000-0-0 16:24:5.995	1,004	0,396	1,865	-7,263	-27,771	-73,914	3,785	-42,896	-158,324	3,875	72,433	31,550	41,02															
21:20:11.247	COM3	2000-0-0 16:24:6.015	1,064	0,354	1,905	-7,141	-20,081	-71,350	5,048	-43,039	-160,302	3,875	72,433	31,550	41,11															
21:20:11.248	COM3	2000-0-0 16:24:6.035	0,951	0,417	1,836	-7,446	5,188	-65,918	6,169	-42,797	-162,092	3,875	72,433	31,550	41,05															
21:20:11.254	COM8	2000-0-0 16:21:48.255	0,978	-0,461	2,016	-20,874	10,681	34,973	-10,761	-29,899	-64,336				38,75															
21:20:11.263	COM8	2000-0-0 16:21:48.275	1,002	-0,402	2,051	-20,996	-0,854	40,833	-11,591	-29,575	-63,419				38,75															
21:20:11.264	COM8	2000-0-0 16:21:48.295	0,894	-0,444	2,045	-22,583	-7,385	41,687	-12,458	-29,427	-62,490				38,75															
21:20:11.268	COM3	2000-0-0 16:24:6.055	1,033	0,451	1,818	-4,272	7,935	-63,416	7,229	-42,259	-163,735	3,875	72,433	31,550	41,15															
21:20:11.284	COM3	2000-0-0 16:24:6.075	0,990	0,473	1,886	-0,366	3,967	-59,509	8,322	-41,836	-165,311	3,875	72,433	31,550	41,02															
21:20:11.288	COM8	2000-0-0 16:21:48.315	0,929	-0,458	1,992	-20,508	-13,184	39,917	-13,310	-29,410	-61,551				38,78															
21:20:11.305	COM3	2000-0-0 16:24:6.095	0,957	0,466	1,854	1,648	16,113	-54,626	9,327	-41,243	-166,696	3,875	72,433	31,550	41,11															
21:20:11.310	COM8	2000-0-0 16:21:48.335	0,831	-0,435	1,978	-19,165	-24,719	37,109	-14,123	-29,564	-60,606				38,81															
21:20:11.322	COM3	2000-0-0 16:24:6.115	0,939	0,495	1,898	5,554	13,794	-49,011	10,272	-40,611	-167,915	3,875	72,433	31,550	41,11															
21:20:11.326	COM8	2000-0-0 16:21:48.355	0,971	-0,468	1,984	-17,822	-30,640	34,302	-14,892	-29,877	-59,722				38,75															
21:20:11.343	COM8	2000-0-0 16:21:48.375	0,999	-0,462	1,946	-12,817	-24,719	32,776	-15,584	-30,174	-58,870				38,69															
21:20:11.344	COM3	2000-0-0 16:24:6.135	0,875	0,504	1,941	9,827	14,832	-50,415	11,212	-39,946	-169,052	3,875	72,433	31,550	41,11															
21:20:11.362	COM8	2000-0-0 16:21:48.395	1,011	-0,434	1,930	-10,986	-17,090	32,593	-16,183	-30,311	-58,057				38,72															
21:20:11.365	COM3	2000-0-0 16:24:6.155	0,938	0,527	1,937	10,803	2,686	-44,434	12,167	-39,457	-170,134	3,875	72,433	31,550	41,15															
21:20:11.393	COM3	2000-0-0 16:24:6.175	0,872	0,553	1,918	10,986	-3,296	-39,185	13,035	-39,155	-171,101	3,875	72,433	31,550	41,11															
21:20:11.397	COM8	2000-0-0 16:21:48.415	1,007	-0,444	1,931	-11,169	-23,010	33,386	-16,782	-30,454	-57,239				38,69															
21:20:11.407	COM8	2000-0-0 16:21:48.435	0,968	-0,457	1,984	-9,094	-24,353	34,668	-17,375	-30,674	-56,338				38,81															
21:20:11.408	COM3	2000-0-0 16:24:6.195	0,831	0,539	1,899	11,841	-11,230	-36,011	13,881	-38,996	-172,024	3,875	72,433	31,550	41,08															
21:20:11.423	COM3	2000-0-0 16:24:6.215	0,891	0,538	1,896	14,160	-16,174	-35,217	14,733	-38,930	-172,903	3,875	72,433	31,550	41,15															
21:20:11.427	COM8	2000-0-0 16:21:48.455	0,916	-0,497	2,047	-11,902	-13,245	35,645	-18,007	-30,756	-55,453				38,69															
21:20:11.441	COM3	2000-0-0 16:24:6.235	0,885	0,552	1,875	17,456	-11,414	-30,212	15,628	-38,875	-173,738	3,875	72,433	31,550	41,15															
21:20:11.449	COM8	2000-0-0 16:21:48.475	0,916	-0,503	1,971	-13,428	-4,639	31,738	-18,589	-30,597	-54,723				38,78															
21:20:11.462	COM8	2000-0-0 16:21:48.495	0,938	-0,490	1,971	-10,559	-2,869	24,048	-19,050	-30,421	-54,141				38,69															
21:20:11.468	COM3	2000-0-0 16:24:6.255	0,911	0,552	1,855	17,334	-4,028	-23,560	16,392	-38,705	-174,364	3,875	72,433	31,550	40,99															
21:20:11.482	COM8	2000-0-0 16:21:48.515	0,984	-0,496	2,021	-7,141	-1,892	17,700	-19,369	-30,278	-53,729				38,81															
21:20:11.488	COM3	2000-0-0 16:24:6.275	0,864	0,571	1,838	17,944	-0,244	-18,494	17,040	-38,436	-174,809	3,875	72,433	31,550	41,15															
21:20:11.503	COM8	2000-0-0 16:21:48.535	0,995	-0,479	2,133	-0,244	15,991	9,705	-19,473	-30,004	-53,531				38,78															
21:20:11.507	COM3	2000-0-0 16:24:6.295	0,998	0,526	1,900	18,616	-4,822	-19,165	17,650	-38,227	-175,204	3,875	72,433	31,550	41,21															
21:20:11.524	COM3	2000-0-0 16:24:6.315	0,999	0,517	1,891	15,991	6,714	-6,165	18,127	-37,974	-175,413	3,875	72,433	31,550	41,08															
21:20:11.525	COM8	2000-0-0 16:21:48.555	0,972	-0,486	2,019	2,441	37,598	-14,404	-19,144	-29,372	-53,954				38,88															
21:20:11.548	COM3	2000-0-0 16:24:6.335	0,906	0,599	1,877	16,479	21,912	-4,272	18,391	-37,463	-175,298	3,875	72,433	31,550	41,02															
21:20:11.552	COM8	2000-0-0 16:21:48.575	0,904	-0,515	1,903	-0,183	23,560	-16,541	-18,781	-28,889	-54,602				38,69															
21:20:11.563	COM8	2000-0-0 16:21:48.595	0,874	-0,495	1,934	-1,770	6,592	-14,282	-18,501	-28,647	-55,069				38,81															
21:20:11.565	COM3	2000-0-0 16:24:6.355	0,823	0,574	1,851	14,465	16,968	0,183	18,578	-36,931	-175,106	3,875	72,433	31,550	41,11															
21:20:11.610	COM3	2000-0-0 16:24:6.375	0,748	0,594	1,879	11,963	6,165	2,930	18,710	-36,628	-174,891	3,875	72,433	31,550	41,18															
21:20:11.611	COM3	2000-0-0 16:24:6.395	0,738	0,552	1,888	11,719	-2,502	3,784	18,836	-36,519	-174,716	3,875	72,433	31,550	41,15															
21:20:11.615	COM8	2000-0-0 16:21:48.615	0,744	-0,474	1,964	-1,526	3,845	-7,141	-18,375	-28,592	-55,338				38,75															
21:20:11.617	COM8	2000-0-0 16:21:48.635	0,771	-0,471	1,994	-0,305	9,460	-7,751	-18,221	-28,427	-55,580				38,69															
21:20:11.623	COM3	2000-0-0 16:24:6.415	0,772	0,537	1,869	11,047	-4,028	0,427	19,001	-36,458	-174,617	3,875	72,433	31,550	41,21															
21:20:11.624	COM8	2000-0-0 16:21:48.655	0,859	-0,463	2,028	-2,502	5,493	-10,376	-18,089	-28,317	-55,827				38,59															
21:20:11.643	COM3	2000-0-0 16:24:6.435	0,840	0,520	1,867	10,925	-2,014	-1,648	19,204	-36,337	-174,589	3,875	72,433	31,550	41,11															
21:20:11.648	COM8	2000-0-0 16:21:48.675	0,904	-0,445	2,010	-4,272	6,409	-10,620	-17,957	-28,169	-56,135				38,75															
21:20:11.662	COM8	2000-0-0 16:21:48.695	0,958	-0,420	1,968	-2,319	10,559	-8,240	-17,831	-27,938	-56,437				38,65															
21:20:11.665	COM3	2000-0-0 16:24:6.455	0,849	0,522	1,873	9,460	2,747	-1,404	19,380	-36,156	-174,551	3,875	72,433	31,550	41,15															
21:20:11.697	COM3	2000-0-0 16:24:6.475	0,863	0,539	1,862	8,179	3,052	-0,427	19,495	-35,925	-174,468	3,875	72,433	31,550	41,11															
21:20:11.700	COM8	2000-0-0 16:21:48.715	0,903	-0,427	2,009	-1,587	7,568	-3,967	-17,732	-27,751	-56,635				38,72															
21:20:11.702	COM8	2000-0-0 16:21:48.735	0,881	-0,416	2,001	-2,991	0,244	-0,916	-17,693	-27,658	-56,728				38,69															
21:20:11.707	COM3	2000-0-0 16:24:6.495	0,873	0,529	1,890	8,545	-7,080	-0,427	19,644	-35,837	-174,446	3,875	72,433	31,550	41,08															
21:20:11.723	COM3	2000-0-0 16:24:6.515	0,830	0,546	1,892	6,775	-4,333	0,305	19,759	-35,810	-174,424	3,875	72,433	31,550	41,18															
21:20:11.728	COM8	2000-0-0 16:21:48.755	0,873	-0,432	2,002	-0,793	0,610	-2,075	-17,655	-27,625	-56,788				38,78															
21:20:11.742	COM3	2000-0-0 16:24:6.535	0,857	0,531	1,860	5,005	-4,883	0,549	19,825	-35,722	-174,380	3,875	72,433	31,550	41,15															
21:20:11.754	COM8	2000-0-0 16:21:48.775	0,865	-0,442	1,987	-0,183	0,854	-2,808	-17,562	-27,576	-56,882				38,65															
21:20:11.763	COM3	2000-0-0 16:24:6.555	0,838	0,545	1,855	3,784	-7,813	0,732	19,869	-35,722	-174,348	3,875	72,433	31,550	41,08															
21:20:11.767	COM8	2000-0-0 16:21:48.795	0,900	-0,446	1,977	0,366	-2,136	-2,502	-17,474	-27,554	-56,959				38,62															
21:20:11.783	COM3	2000-0-0 16:24:6.575	0,827	0,533	1,872	3,296	-5,066	0,610	19,902	-35,689	-174,320	3,875	72,433	31,550	41,15															
21:20:11.787	COM8	2000-0-0 16:21:48.815	0,904	-0,448	2,017	0,305	-6,775	-0,793	-17,408	-27,625	-56,981				38,81															
21:20:11.802	COM8	2000-0-0 16:21:48.835	0,899	-0,439	2,011	-0,061	-4,639	-0,183	-17,364	-27,686	-56,975				38,75															
21:20:11.803	COM3	2000-0-0 16:24:6.595	0,841	0,549	1,865	4,028	-2,930	0,183	19,940	-35,607	-174,276	3,875	72,433	31,550	41,05															
21:20:11.823	COM3	2000-0-0 16:24:6.615	0,845	0,529	1,868	4,700	-1,892	-1,404	19,995	-35,497	-174,260	3,875	72,433	31,550	41,02															
21:20:11.828	COM8	2000-0-0 16:21:48.855	0,912	-0,439	1,991	-3,174	-4,028	-0,610	-17,353	-27,708	-56,981				38,81															
21:20:11.840	COM3	2000-0-0 16:24:6.635	0,839	0,536	1,837	5,615	-2,258	0,916	20,050	-35,392	-174,199	3,875	72,433	31,550	41,15															
21:20:11.842	COM8	2000-0-0 16:21:48.875	0,905	-0,450	2,014	-2,441	-4,150	-0,061	-17,353	-27,751	-56,975				38,78															
21:20:11.859	COM3	2000-0-0 16:24:6.655	0,862	0,541	1,846	6,653	-5,920	2,380	20,105	-35,343	-174,128	3,875	72,433	31,550	41,11															
21:20:11.864	COM8	2000-0-0 16:21:48.895	0,906	-0,451	1,997	-3,601	-2,930	0,488	-17,369	-27,757	-56,975				38,69															
21:20:11.882	COM3	2000-0-0 16:24:6.675	0,894	0,543	1,843	7,690	-5,798	4,089	20,182	-35,343	-174,045	3,875	72,433	31,550	41,05															
21:20:11.904	COM8	2000-0-0 16:21:48.915	0,913	-0,442	1,986	-4,761	-8,972	0,183	-17,424	-27,839	-56,948				38,75															
21:20:11.905	COM8	2000-0-0 16:21:48.935	0,941	-0,453	2,026	-6,042	-7,507	-2,502	-17,479	-27,949	-56,953				38,81															
21:20:11.907	COM3	2000-0-0 16:24:6.695	0,960	0,552	1,814	8,850	-6,592	7,080	20,242	-35,359	-173,892	3,875	72,433	31,550	41,11															
21:20:11.920	COM3	2000-0-0 16:24:6.715	0,986	0,532	1,813	12,024	-8,789	11,475	20,314	-35,436	-173,677	3,875	72,433	31,550	41,02															
21:20:11.924	COM8	2000-0-0 16:21:48.955	1,121	-0,467	1,992	-7,080	-13,855	-3,052	-17,567	-28,125	-56,964				38,65															
21:20:11.968	COM3	2000-0-0 16:24:6.735	0,955	0,553	1,896	12,573	-7,019	18,555	20,336	-35,557	-173,315	3,875	72,433	31,550	41,11															
21:20:11.969	COM3	2000-0-0 16:24:6.755	0,991	0,591	1,880	11,108	-18,860	28,564	20,248	-35,859	-172,793	3,875	72,433	31,550	41,05															
21:20:11.974	COM8	2000-0-0 16:21:48.975	1,145	-0,427	1,941	-6,165	-21,729	-5,249	-17,661	-28,493	-56,953				38,62															
21:20:11.975	COM8	2000-0-0 16:21:48.995	1,035	-0,412	2,007	-7,019	-20,935	-2,502	-17,748	-28,856	-56,909				38,72															
21:20:11.994	COM3	2000-0-0 16:24:6.775	0,957	0,549	1,792	13,489	-27,649	33,691	20,127	-36,425	-172,211	3,875	72,433	31,550	41,02															
21:20:11.995	COM8	2000-0-0 16:21:49.015	1,078	-0,492	2,088	-3,662	-21,362	-1,953	-17,858	-29,284	-56,827				38,84															
21:20:12.000	COM3	2000-0-0 16:24:6.795	1,003	0,479	1,701	19,104	-29,480	41,016	20,017	-37,084	-171,491	3,875	72,433	31,550	41,21															
21:20:12.004	COM8	2000-0-0 16:21:49.035	1,025	-0,602	2,117	3,479	21,118	-51,208	-17,441	-29,372	-57,557				38,78															
21:20:12.029	COM3	2000-0-0 16:24:6.815	1,137	0,451	1,759	22,217	-33,508	50,049	19,896	-37,886	-170,612	3,875	72,433	31,550	41,21															
21:20:12.044	COM3	2000-0-0 16:24:6.835	1,072	0,481	1,748	17,151	5,798	59,387	19,473	-38,337	-169,321	3,875	72,433	31,550	41,18															
21:20:12.058	COM8	2000-0-0 16:21:49.055	0,846	-0,389	1,969	-2,563	25,024	-53,955	-16,688	-29,075	-58,898				38,56															
21:20:12.059	COM8	2000-0-0 16:21:49.075	0,894	-0,402	1,831	-3,174	-7,996	-66,467	-16,100	-29,306	-60,320				38,75															
21:20:12.065	COM3	2000-0-0 16:24:6.855	0,861	0,470	1,758	10,010	43,701	66,345	18,556	-38,024	-167,459	3,875	72,433	31,550	41,21															
21:20:12.073	COM8	2000-0-0 16:21:49.095	1,072	-0,437	2,022	8,240	-36,743	-79,102	-15,249	-30,223	-61,837				38,81															
21:20:12.082	COM3	2000-0-0 16:24:6.875	0,909	0,459	1,840	7,202	42,297	65,918	17,446	-37,430	-165,421	3,875	72,433	31,550	41,11															
21:20:12.085	COM8	2000-0-0 16:21:49.115	0,966	-0,335	2,028	7,385	-27,283	-83,923	-14,183	-31,234	-63,517				38,72															
21:20:12.103	COM3	2000-0-0 16:24:6.895	0,955	0,438	1,884	3,357	27,405	70,251	16,381	-37,117	-163,493	3,875	72,433	31,550	41,18															
21:20:12.107	COM8	2000-0-0 16:21:49.135	0,969	-0,369	1,898	8,667	1,404	-82,275	-13,074	-31,718	-65,358				38,75															
21:20:12.120	COM3	2000-0-0 16:24:6.915	1,007	0,435	1,906	-4,150	37,659	71,106	15,172	-36,733	-161,516	3,875	72,433	31,550	41,11															
21:20:12.125	COM8	2000-0-0 16:21:49.155	0,992	-0,320	1,929	13,123	16,479	-78,125	-11,827	-31,800	-67,264				38,78															
21:20:12.140	COM3	2000-0-0 16:24:6.935	1,050	0,385	1,887	-7,874	43,579	73,364	13,854	-36,205	-159,500	3,875	72,433	31,550	41,08															
21:20:12.144	COM8	2000-0-0 16:21:49.175	0,959	-0,307	1,947	16,235	28,870	-82,764	-10,508	-31,536	-69,252				38,69															
21:20:12.162	COM3	2000-0-0 16:24:6.955	1,004	0,341	1,817	-7,263	56,396	76,111	12,480	-35,453	-157,374	3,875	72,433	31,550	41,05															
21:20:12.165	COM8	2000-0-0 16:21:49.195	0,991	-0,280	1,930	19,775	27,710	-85,693	-9,086	-31,185	-71,334				38,78															
21:20:12.182	COM3	2000-0-0 16:24:6.975	1,026	0,331	1,822	-4,639	63,904	79,834	11,135	-34,464	-155,171	3,875	72,433	31,550	41,15															
21:20:12.190	COM8	2000-0-0 16:21:49.215	1,051	-0,228	1,961	21,240	13,672	-86,365	-7,619	-31,009	-73,405				38,72															
21:20:12.200	COM3	2000-0-0 16:24:6.995	1,094	0,317	1,847	3,296	52,063	78,979	9,965	-33,558	-153,007	3,875	72,433	31,550	41,08															
21:20:12.217	COM8	2000-0-0 16:21:49.235	1,059	-0,228	1,973	18,738	8,240	-85,327	-6,224	-30,959	-75,432				38,78															
21:20:12.220	COM3	2000-0-0 16:24:7.015	1,085	0,306	1,848	8,911	54,260	80,933	8,992	-32,745	-150,886	3,875	72,433	31,550	41,11															
21:20:12.224	COM8	2000-0-0 16:21:49.255	1,029	-0,193	1,938	14,038	5,249	-85,632	-4,911	-30,927	-77,448				38,81															
21:20:12.243	COM3	2000-0-0 16:24:7.035	1,004	0,292	1,883	11,230	69,641	78,552	8,146	-31,619	-148,815	3,875	72,433	31,550	40,99															
21:20:12.246	COM8	2000-0-0 16:21:49.275	1,037	-0,173	1,980	10,376	-3,784	-83,923	-3,724	-31,036	-79,426				38,78															
21:20:12.260	COM3	2000-0-0 16:24:7.055	0,984	0,294	1,930	14,465	75,012	81,177	7,372	-30,361	-146,695	3,875	72,433	31,550	41,11															
21:20:12.264	COM8	2000-0-0 16:21:49.295	0,983	-0,116	1,897	3,235	-10,254	-85,815	-2,626	-31,223	-81,420				38,72															
21:20:12.283	COM3	2000-0-0 16:24:7.075	0,975	0,250	1,965	16,785	72,754	80,933	6,702	-29,070	-144,602	3,875	72,433	31,550	41,08															
21:20:12.288	COM8	2000-0-0 16:21:49.315	1,054	-0,132	1,943	1,648	-18,250	-84,167	-1,626	-31,569	-83,403				38,75															
21:20:12.299	COM3	2000-0-0 16:24:7.095	0,931	0,240	1,992	19,958	71,350	85,327	6,141	-27,823	-142,515	3,875	72,433	31,550	41,02															
21:20:12.303	COM8	2000-0-0 16:21:49.335	1,036	-0,071	1,952	-3,479	-10,986	-81,787	-0,692	-31,844	-85,336				38,62															
21:20:12.337	COM3	2000-0-0 16:24:7.115	0,891	0,182	2,028	22,766	51,697	86,670	5,663	-26,801	-140,422	3,875	72,433	31,550	41,15															
21:20:12.339	COM3	2000-0-0 16:24:7.135	0,928	0,126	2,014	27,039	22,766	83,374	5,334	-26,323	-138,455	3,875	72,433	31,550	41,15															
21:20:12.343	COM8	2000-0-0 16:21:49.355	1,006	-0,049	1,950	-6,897	1,465	-81,299	0,143	-31,855	-87,259				38,62															
21:20:12.344	COM8	2000-0-0 16:21:49.375	1,033	-0,018	1,899	-15,259	9,155	-80,261	0,813	-31,646	-89,143				38,75															
21:20:12.369	COM3	2000-0-0 16:24:7.155	0,920	0,097	2,060	26,611	2,686	79,407	5,087	-26,279	-136,599	3,875	72,433	31,550	41,11															
21:20:12.372	COM8	2000-0-0 16:21:49.395	0,903	0,015	1,928	-19,043	25,452	-78,369	1,362	-31,207	-90,994				38,72															
21:20:12.395	COM3	2000-0-0 16:24:7.175	0,919	0,103	2,057	25,146	-0,427	73,975	4,883	-26,406	-134,890	3,875	72,433	31,550	41,18															
21:20:12.399	COM3	2000-0-0 16:24:7.195	0,881	0,019	2,008	26,306	-19,958	74,341	4,686	-26,746	-133,259	3,875	72,433	31,550	41,18															
21:20:12.404	COM8	2000-0-0 16:21:49.415	1,015	0,087	1,987	-17,700	12,817	-81,909	1,917	-30,734	-92,884				38,75															
21:20:12.405	COM8	2000-0-0 16:21:49.435	1,103	0,078	1,991	-17,029	18,860	-81,116	2,455	-30,339	-94,752				38,62															
21:20:12.428	COM3	2000-0-0 16:24:7.215	0,933	-0,013	1,985	28,870	-33,630	72,815	4,515	-27,405	-131,644	3,875	72,433	31,550	41,08															
21:20:12.433	COM8	2000-0-0 16:21:49.455	1,057	0,100	2,054	-14,526	36,560	-88,013	3,093	-29,674	-96,696				38,62															
21:20:12.440	COM3	2000-0-0 16:24:7.235	0,968	-0,009	1,987	29,541	-36,560	73,914	4,356	-28,213	-130,018	3,875	72,433	31,550	41,02															
21:20:12.445	COM8	2000-0-0 16:21:49.475	0,947	0,182	2,037	-15,320	49,072	-94,299	3,724	-28,614	-98,718				38,75															
21:20:12.460	COM3	2000-0-0 16:24:7.255	0,938	-0,040	2,009	28,503	-35,767	74,463	4,131	-29,015	-128,353	3,875	72,433	31,550	41,02															
21:20:12.464	COM8	2000-0-0 16:21:49.495	0,867	0,231	1,932	-20,020	64,209	-93,201	4,274	-27,301	-100,778				38,69															
21:20:12.479	COM3	2000-0-0 16:24:7.275	0,934	-0,048	1,998	26,550	-29,602	72,144	3,851	-29,713	-126,700	3,875	72,433	31,550	41,11															
21:20:12.483	COM8	2000-0-0 16:21:49.515	0,922	0,229	2,044	-14,648	40,527	-93,384	4,807	-26,158	-102,777				38,75															
21:20:12.498	COM3	2000-0-0 16:24:7.295	0,908	-0,124	1,980	28,320	-27,649	73,975	3,543	-30,311	-125,035	3,875	72,433	31,550	41,05															
21:20:12.502	COM8	2000-0-0 16:21:49.535	1,010	0,223	2,150	-10,681	24,597	-90,393	5,372	-25,400	-104,755				38,69															
21:20:12.524	COM8	2000-0-0 16:21:49.555	0,913	0,301	2,138	-14,343	27,039	-92,651	5,933	-24,769	-106,699				38,59															
21:20:12.528	COM3	2000-0-0 16:24:7.315	0,972	-0,152	1,944	30,762	-32,593	74,890	3,235	-30,943	-123,311	3,875	72,433	31,550	41,02															
21:20:12.548	COM3	2000-0-0 16:24:7.335	0,997	-0,186	1,949	31,189	-36,499	73,914	2,939	-31,657	-121,597	3,875	72,433	31,550	41,15															
21:20:12.557	COM8	2000-0-0 16:21:49.575	0,894	0,330	2,036	-16,418	41,992	-94,177	6,405	-23,840	-108,644				38,72															
21:20:12.560	COM3	2000-0-0 16:24:7.355	0,986	-0,225	1,958	31,128	-31,250	70,862	2,631	-32,322	-119,921	3,875	72,433	31,550	41,18															
21:20:12.577	COM8	2000-0-0 16:21:49.595	0,857	0,372	2,034	-19,409	44,617	-94,849	6,806	-22,780	-110,588				38,75															
21:20:12.582	COM3	2000-0-0 16:24:7.375	0,978	-0,269	1,947	32,410	-28,931	69,153	2,335	-32,888	-118,279	3,875	72,433	31,550	41,11															
21:20:12.585	COM8	2000-0-0 16:21:49.615	0,839	0,315	2,129	-16,235	33,142	-93,445	7,136	-21,780	-112,495				38,75															
21:20:12.602	COM3	2000-0-0 16:24:7.395	0,926	-0,295	1,911	35,400	-32,104	67,871	2,076	-33,448	-116,675	3,875	72,433	31,550	41,15															
21:20:12.606	COM8	2000-0-0 16:21:49.635	0,904	0,382	2,172	-14,038	17,761	-89,600	7,537	-21,127	-114,379				38,84															
21:20:12.622	COM3	2000-0-0 16:24:7.415	0,906	-0,303	1,888	37,964	-38,269	65,796	1,868	-34,124	-115,082	3,875	72,433	31,550	41,02															
21:20:12.625	COM8	2000-0-0 16:21:49.655	0,824	0,350	2,136	-13,489	19,836	-88,684	7,894	-20,561	-116,208				38,75															
21:20:12.638	COM3	2000-0-0 16:24:7.435	0,909	-0,306	1,886	39,429	-40,405	65,857	1,670	-34,882	-113,483	3,875	72,433	31,550	41,05															
21:20:12.642	COM8	2000-0-0 16:21:49.675	0,908	0,384	2,112	-8,728	17,883	-88,745	8,322	-19,968	-118,043				38,78															
21:20:12.663	COM8	2000-0-0 16:21:49.695	0,794	0,493	2,114	-8,667	8,911	-87,219	8,751	-19,495	-119,855				38,65															
21:20:12.668	COM3	2000-0-0 16:24:7.455	0,919	-0,298	1,904	39,001	-40,405	61,951	1,472	-35,618	-111,929	3,875	72,433	31,550	40,99															
21:20:12.709	COM3	2000-0-0 16:24:7.475	0,854	-0,326	1,903	37,842	-43,945	59,998	1,263	-36,370	-110,435	3,875	72,433	31,550	41,08															
21:20:12.710	COM3	2000-0-0 16:24:7.495	0,861	-0,317	1,840	38,635	-52,185	64,758	1,011	-37,222	-108,885	3,875	72,433	31,550	41,11															
21:20:12.714	COM8	2000-0-0 16:21:49.715	0,662	0,518	2,109	-7,690	2,075	-87,280	9,190	-19,193	-121,679				38,78															
21:20:12.715	COM8	2000-0-0 16:21:49.735	0,798	0,449	2,106	-4,272	-10,620	-80,383	9,651	-19,045	-123,448				38,75															
21:20:12.728	COM3	2000-0-0 16:24:7.515	0,895	-0,357	1,838	39,490	-54,321	61,218	0,753	-38,210	-107,325	3,875	72,433	31,550	41,15															
21:20:12.729	COM8	2000-0-0 16:21:49.755	0,780	0,518	2,169	-0,305	-21,912	-79,102	10,195	-19,166	-125,167				38,69															
21:20:12.738	COM3	2000-0-0 16:24:7.535	0,882	-0,339	1,838	49,133	-61,768	72,998	0,406	-39,221	-105,502	3,875	72,433	31,550	41,05															
21:20:12.742	COM8	2000-0-0 16:21:49.775	0,579	0,558	2,161	-0,854	-23,315	-80,383	10,745	-19,325	-126,914				38,69															
21:20:12.758	COM3	2000-0-0 16:24:7.555	0,837	-0,357	1,837	48,462	-54,749	82,642	0,005	-40,221	-103,447	3,875	72,433	31,550	41,08															
21:20:12.763	COM8	2000-0-0 16:21:49.795	0,719	0,513	2,101	-2,014	-32,776	-78,979	11,332	-19,605	-128,716				38,81															
21:20:12.778	COM3	2000-0-0 16:24:7.575	0,770	-0,473	1,820	55,725	-52,673	84,229	-0,401	-41,105	-101,245	3,875	72,433	31,550	41,08															
21:20:12.782	COM8	2000-0-0 16:21:49.815	0,771	0,498	2,137	4,578	-41,565	-74,524	11,970	-20,045	-130,468				38,72															
21:20:12.799	COM3	2000-0-0 16:24:7.595	0,771	-0,698	1,833	50,537	-36,194	57,312	-0,527	-41,781	-99,514	3,875	72,433	31,550	41,08															
21:20:12.803	COM8	2000-0-0 16:21:49.835	0,678	0,529	2,129	-4,089	-27,710	-71,777	12,524	-20,435	-132,155				38,69															
21:20:12.820	COM3	2000-0-0 16:24:7.615	0,672	-0,475	1,826	70,129	-33,386	59,326	-0,560	-42,270	-97,751	3,875	72,433	31,550	41,08															
21:20:12.824	COM8	2000-0-0 16:21:49.855	0,682	0,581	2,080	-2,197	-22,400	-69,153	13,035	-20,517	-133,726				38,75															
21:20:12.842	COM3	2000-0-0 16:24:7.635	0,663	-0,321	1,854	71,106	-20,264	76,843	-0,610	-42,523	-95,823	3,875	72,433	31,550	41,11															
21:20:12.847	COM8	2000-0-0 16:21:49.875	0,724	0,562	2,098	-5,676	-16,968	-63,660	13,420	-20,588	-135,187				38,69															
21:20:12.858	COM3	2000-0-0 16:24:7.655	0,842	-0,269	1,921	73,120	-12,695	71,533	-0,621	-42,599	-93,889	3,875	72,433	31,550	41,11															
21:20:12.862	COM8	2000-0-0 16:21:49.895	0,621	0,657	2,142	-6,287	-3,479	-58,350	13,749	-20,468	-136,500				38,75															
21:20:12.883	COM8	2000-0-0 16:21:49.915	0,679	0,698	2,128	-9,033	7,446	-57,983	14,019	-20,083	-137,692				38,72															
21:20:12.887	COM3	2000-0-0 16:24:7.675	0,656	-0,564	1,913	62,866	-14,526	46,875	-0,566	-42,589	-92,252	3,875	72,433	31,550	41,05															
21:20:12.903	COM8	2000-0-0 16:21:49.935	0,587	0,683	2,123	-5,798	10,071	-58,472	14,260	-19,556	-138,818				38,75															
21:20:12.909	COM3	2000-0-0 16:24:7.695	0,666	-0,627	1,857	60,486	-12,756	43,518	-0,368	-42,599	-90,978	3,875	72,433	31,550	41,18															
21:20:12.929	COM8	2000-0-0 16:21:49.955	0,654	0,604	2,123	-8,057	19,592	-53,162	14,442	-18,990	-139,905				38,72															
21:20:12.939	COM3	2000-0-0 16:24:7.715	0,817	-0,597	1,884	59,692	-9,766	44,128	-0,143	-42,583	-89,764	3,875	72,433	31,550	41,11															
21:20:12.940	COM3	2000-0-0 16:24:7.735	0,812	-0,626	1,905	52,612	-4,944	45,593	-0,049	-42,457	-88,528	3,875	72,433	31,550	41,08															
21:20:12.944	COM8	2000-0-0 16:21:49.975	0,655	0,761	2,123	-11,902	16,663	-53,589	14,612	-18,342	-140,905				38,72															
21:20:12.976	COM3	2000-0-0 16:24:7.755	0,624	-0,601	1,897	41,199	-6,897	50,476	-0,225	-42,325	-87,193	3,875	72,433	31,550	41,11															
21:20:12.981	COM3	2000-0-0 16:24:7.775	0,796	-0,662	1,846	39,917	-15,137	50,659	-0,577	-42,319	-85,787	3,875	72,433	31,550	41,21															
21:20:12.986	COM8	2000-0-0 16:21:49.995	0,587	0,922	2,150	-8,728	6,104	-59,387	14,799	-17,803	-141,965				38,69															
21:20:12.986	COM8	2000-0-0 16:21:50.015	0,566	0,948	2,039	-9,766	1,343	-64,087	15,002	-17,402	-143,218				38,69															
21:20:12.998	COM3	2000-0-0 16:24:7.795	0,654	-0,668	1,884	37,781	-7,202	51,025	-0,917	-42,259	-84,413	3,875	72,433	31,550	41,15															
21:20:13.003	COM8	2000-0-0 16:21:50.035	0,541	0,886	2,044	-15,991	0,061	-69,641	15,178	-17,078	-144,624				38,84															
21:20:13.018	COM3	2000-0-0 16:24:7.815	0,806	-0,625	1,962	34,058	4,089	49,927	-1,329	-42,034	-83,029	3,875	72,433	31,550	40,99															
21:20:13.022	COM8	2000-0-0 16:21:50.055	0,530	0,816	2,094	-18,433	2,747	-73,059	15,337	-16,650	-146,074				38,72															
21:20:13.039	COM3	2000-0-0 16:24:7.835	0,681	-0,660	1,998	23,743	60,242	53,040	-1,895	-41,017	-81,667	3,875	72,433	31,550	41,11															
21:20:13.078	COM3	2000-0-0 16:24:7.855	0,673	-0,712	1,976	13,489	110,962	44,373	-2,494	-38,820	-80,508	3,875	72,433	31,550	41,15															
21:20:13.079	COM3	2000-0-0 16:24:7.875	0,585	-0,710	1,932	0,000	120,422	40,955	-3,137	-36,167	-79,629	3,875	72,433	31,550	41,11															
21:20:13.084	COM8	2000-0-0 16:21:50.075	0,411	0,755	2,088	-14,343	5,798	-70,313	15,463	-16,139	-147,475				38,75															
21:20:13.085	COM8	2000-0-0 16:21:50.095	0,440	0,737	2,091	-17,090	20,508	-68,298	15,524	-15,513	-148,793				38,75															
21:20:13.094	COM8	2000-0-0 16:21:50.115	0,418	0,809	2,086	-16,846	19,653	-68,176	15,601	-14,738	-150,051				38,72															
21:20:13.102	COM3	2000-0-0 16:24:7.895	0,722	-0,874	1,959	3,601	93,872	42,236	-3,818	-33,827	-78,827	3,875	72,433	31,550	41,18															
21:20:13.105	COM8	2000-0-0 16:21:50.135	0,347	0,826	2,094	-15,625	31,799	-66,467	15,628	-13,876	-151,249				38,62															
21:20:13.120	COM3	2000-0-0 16:24:7.915	0,678	-0,704	2,013	8,118	66,956	48,340	-4,362	-32,108	-77,904	3,875	72,433	31,550	41,08															
21:20:13.124	COM8	2000-0-0 16:21:50.155	0,389	0,840	2,220	-11,963	32,104	-69,824	15,677	-12,865	-152,419				38,78															
21:20:13.136	COM3	2000-0-0 16:24:7.935	0,528	-0,617	2,028	4,822	70,862	51,880	-4,955	-30,493	-76,904	3,875	72,433	31,550	41,15															
21:20:13.147	COM8	2000-0-0 16:21:50.175	0,434	0,838	2,269	-13,916	25,391	-71,411	15,732	-11,948	-153,671				38,81															
21:20:13.164	COM8	2000-0-0 16:21:50.195	0,251	0,914	2,221	-11,353	19,409	-70,251	15,765	-11,135	-154,924				38,75															
21:20:13.167	COM3	2000-0-0 16:24:7.955	0,568	-0,629	2,079	0,610	71,960	49,805	-5,603	-28,839	-75,938	3,875	72,433	31,550	41,08															
21:20:13.187	COM8	2000-0-0 16:21:50.215	0,388	0,909	2,094	-9,766	6,531	-78,552	15,892	-10,497	-156,335				38,81															
21:20:13.188	COM3	2000-0-0 16:24:7.975	0,515	-0,685	2,082	-2,991	73,975	47,119	-6,191	-27,136	-75,108	3,875	72,433	31,550	41,15															
21:20:13.197	COM3	2000-0-0 16:24:7.995	0,583	-0,767	2,106	-4,822	59,509	49,133	-6,844	-25,571	-74,262	3,875	72,433	31,550	41,05															
21:20:13.208	COM8	2000-0-0 16:21:50.235	0,386	0,820	2,227	-12,939	-6,592	-76,355	16,013	-10,146	-157,885				38,78															
21:20:13.217	COM3	2000-0-0 16:24:8.015	0,500	-0,802	2,160	-4,028	33,997	53,284	-7,465	-24,428	-73,367	3,875	72,433	31,550	41,08															
21:20:13.223	COM8	2000-0-0 16:21:50.255	0,318	0,789	2,261	-8,728	-6,836	-62,500	16,089	-9,948	-159,258				38,65															
21:20:13.239	COM3	2000-0-0 16:24:8.035	0,453	-0,755	2,154	-2,014	12,634	52,063	-8,091	-23,796	-72,361	3,875	72,433	31,550	41,08															
21:20:13.244	COM8	2000-0-0 16:21:50.275	0,449	0,826	2,149	0,854	-22,522	-57,251	16,342	-9,976	-160,516				38,72															
21:20:13.262	COM8	2000-0-0 16:21:50.295	0,354	0,805	2,216	8,850	-10,986	-47,668	16,710	-10,025	-161,642				38,69															
21:20:13.270	COM3	2000-0-0 16:24:8.055	0,448	-0,697	2,097	-1,587	10,193	44,006	-8,657	-23,357	-71,450	3,875	72,433	31,550	41,15															
21:20:13.289	COM8	2000-0-0 16:21:50.315	0,296	0,834	2,236	17,273	2,075	-36,804	17,172	-9,811	-162,449				38,81															
21:20:13.290	COM3	2000-0-0 16:24:8.075	0,564	-0,721	2,085	0,732	15,015	31,006	-9,075	-22,896	-70,807	3,875	72,433	31,550	41,05															
21:20:13.298	COM3	2000-0-0 16:24:8.095	0,484	-0,748	2,167	3,967	14,160	24,109	-9,294	-22,352	-70,417	3,875	72,433	31,550	41,18															
21:20:13.310	COM8	2000-0-0 16:21:50.335	0,318	0,903	2,172	16,785	-6,714	-29,846	17,672	-9,690	-163,087				38,81															
21:20:13.316	COM3	2000-0-0 16:24:8.115	0,513	-0,803	2,195	1,465	-15,015	26,062	-9,575	-22,236	-69,950	3,875	72,433	31,550	41,11															
21:20:13.328	COM8	2000-0-0 16:21:50.355	0,313	0,910	2,149	8,850	-7,385	-23,376	18,045	-9,668	-163,641				38,59															
21:20:13.337	COM3	2000-0-0 16:24:8.135	0,463	-0,765	2,061	3,784	-25,330	25,024	-9,866	-22,505	-69,406	3,875	72,433	31,550	41,11															
21:20:13.345	COM8	2000-0-0 16:21:50.375	0,256	0,936	2,261	0,122	-20,508	-18,738	18,232	-9,822	-164,130				38,72															
21:20:13.360	COM3	2000-0-0 16:24:8.155	0,468	-0,773	1,951	12,268	-7,690	15,686	-10,003	-22,654	-69,000	3,875	72,433	31,550	41,18															
21:20:13.373	COM8	2000-0-0 16:21:50.395	0,284	0,914	2,164	-3,967	-32,410	-15,991	18,325	-10,272	-164,658				38,78															
21:20:13.377	COM3	2000-0-0 16:24:8.175	0,539	-0,784	2,046	20,996	25,879	3,723	-9,805	-22,181	-68,983	3,875	72,433	31,550	41,11															
21:20:13.382	COM8	2000-0-0 16:21:50.415	0,331	0,896	2,224	-9,949	-28,198	-11,719	18,298	-10,712	-165,108				38,81															
21:20:13.398	COM3	2000-0-0 16:24:8.195	0,500	-0,836	2,326	21,912	0,610	7,080	-9,492	-21,791	-69,011	3,875	72,433	31,550	41,15															
21:20:13.405	COM8	2000-0-0 16:21:50.435	0,221	0,903	2,232	-12,878	-35,278	-8,545	18,171	-11,228	-165,498				38,75															
21:20:13.437	COM3	2000-0-0 16:24:8.215	0,522	-0,855	2,274	21,851	-27,344	11,108	-9,294	-22,028	-68,813	3,875	72,433	31,550	41,05															
21:20:13.438	COM3	2000-0-0 16:24:8.235	0,479	-0,865	2,130	23,926	-22,156	9,766	-9,091	-22,385	-68,571	3,875	72,433	31,550	41,15															
21:20:13.464	COM3	2000-0-0 16:24:8.255	0,497	-0,856	2,170	27,771	-18,799	9,216	-8,789	-22,604	-68,384	3,875	72,433	31,550	41,02															
21:20:13.472	COM8	2000-0-0 16:21:50.455	0,301	0,953	2,152	-10,193	-42,480	-8,606	18,078	-11,898	-165,921				38,88															
21:20:13.473	COM8	2000-0-0 16:21:50.475	0,273	0,942	2,254	-10,742	-36,377	-7,690	17,990	-12,524	-166,322				38,65															
21:20:13.476	COM3	2000-0-0 16:24:8.275	0,445	-0,856	2,254	21,057	-27,466	11,230	-8,553	-22,901	-68,170	3,875	72,433	31,550	41,24															
21:20:13.481	COM8	2000-0-0 16:21:50.495	0,240	0,948	2,213	-8,850	-31,006	-7,690	17,919	-13,002	-166,663				38,65															
21:20:13.483	COM8	2000-0-0 16:21:50.515	0,270	0,951	2,159	-6,775	-30,823	-7,507	17,908	-13,480	-167,009				38,72															
21:20:13.500	COM3	2000-0-0 16:24:8.295	0,383	-0,876	2,140	13,550	-30,396	14,221	-8,542	-23,357	-67,841	3,875	72,433	31,550	41,15															
21:20:13.515	COM3	2000-0-0 16:24:8.315	0,503	-0,907	2,029	16,174	-8,179	9,399	-8,514	-23,511	-67,615	3,875	72,433	31,550	41,05															
21:20:13.525	COM8	2000-0-0 16:21:50.535	0,215	0,958	2,184	-5,127	-20,935	-7,324	17,924	-13,826	-167,316				38,78															
21:20:13.529	COM8	2000-0-0 16:21:50.555	0,294	0,969	2,188	-2,991	-15,137	-6,470	17,968	-14,013	-167,552				38,81															
21:20:13.538	COM3	2000-0-0 16:24:8.335	0,460	-0,848	2,109	14,954	14,099	2,991	-8,366	-23,225	-67,599	3,875	72,433	31,550	41,08															
21:20:13.550	COM8	2000-0-0 16:21:50.575	0,235	0,923	2,202	-2,930	-3,906	-4,211	18,007	-14,052	-167,712				38,69															
21:20:13.560	COM3	2000-0-0 16:24:8.355	0,454	-0,866	2,234	4,578	8,118	5,859	-8,366	-22,824	-67,588	3,875	72,433	31,550	41,15															
21:20:13.565	COM8	2000-0-0 16:21:50.595	0,253	0,945	2,131	-1,587	6,836	-1,953	18,034	-13,881	-167,750				38,69															
21:20:13.575	COM3	2000-0-0 16:24:8.375	0,468	-0,870	2,172	1,770	5,493	4,761	-8,509	-22,582	-67,549	3,875	72,433	31,550	40,99															
21:20:13.587	COM8	2000-0-0 16:21:50.615	0,261	0,958	2,146	-1,831	16,541	-1,404	18,051	-13,552	-167,701				38,65															
21:20:13.617	COM3	2000-0-0 16:24:8.395	0,487	-0,840	2,161	2,625	17,883	0,488	-8,630	-22,170	-67,604	3,875	72,433	31,550	41,11															
21:20:13.618	COM3	2000-0-0 16:24:8.415	0,473	-0,804	2,219	2,563	21,667	-3,235	-8,685	-21,627	-67,786	3,875	72,433	31,550	41,11															
21:20:13.622	COM8	2000-0-0 16:21:50.635	0,253	0,943	2,181	-3,174	29,480	-0,916	18,029	-12,986	-167,569				38,78															
21:20:13.623	COM8	2000-0-0 16:21:50.655	0,228	0,933	2,179	-2,075	32,532	-1,282	18,001	-12,305	-167,393				38,72															
21:20:13.639	COM3	2000-0-0 16:24:8.435	0,473	-0,834	2,295	-1,099	1,343	0,000	-8,811	-21,292	-67,917	3,875	72,433	31,550	41,15															
21:20:13.644	COM8	2000-0-0 16:21:50.675	0,261	0,950	2,169	-2,686	31,555	-2,563	17,985	-11,602	-167,228				38,78															
21:20:13.655	COM3	2000-0-0 16:24:8.455	0,462	-0,840	2,190	1,221	-10,071	1,099	-8,965	-21,319	-67,945	3,875	72,433	31,550	41,02															
21:20:13.665	COM8	2000-0-0 16:21:50.695	0,241	0,956	2,188	-5,798	34,607	-2,319	17,924	-10,887	-167,069				38,81															
21:20:13.683	COM8	2000-0-0 16:21:50.715	0,200	0,946	2,222	-5,432	32,349	-0,427	17,842	-10,184	-166,871				38,69															
21:20:13.684	COM3	2000-0-0 16:24:8.475	0,483	-0,821	2,161	5,920	-4,578	0,000	-9,036	-21,335	-67,978	3,875	72,433	31,550	41,05															
21:20:13.701	COM8	2000-0-0 16:21:50.735	0,231	0,963	2,203	-4,944	28,503	-1,770	17,776	-9,553	-166,701				38,72															
21:20:13.704	COM3	2000-0-0 16:24:8.495	0,486	-0,809	2,189	6,714	3,784	-1,404	-9,036	-21,193	-68,077	3,875	72,433	31,550	41,15															
21:20:13.717	COM3	2000-0-0 16:24:8.515	0,487	-0,823	2,213	3,174	1,465	0,305	-9,075	-21,006	-68,165	3,875	72,433	31,550	41,11															
21:20:13.721	COM8	2000-0-0 16:21:50.755	0,202	0,960	2,246	-6,897	24,414	-2,136	17,699	-8,998	-166,580				38,88															
21:20:13.736	COM3	2000-0-0 16:24:8.535	0,490	-0,846	2,162	2,258	-2,441	3,235	-9,185	-20,912	-68,181	3,875	72,433	31,550	41,08															
21:20:13.745	COM8	2000-0-0 16:21:50.775	0,218	0,979	2,240	-7,568	17,761	-0,488	17,617	-8,558	-166,465				38,72															
21:20:13.755	COM3	2000-0-0 16:24:8.555	0,488	-0,854	2,167	5,493	2,197	2,075	-9,250	-20,781	-68,198	3,875	72,433	31,550	40,99															
21:20:13.760	COM8	2000-0-0 16:21:50.795	0,204	0,958	2,274	-7,385	10,986	2,747	17,523	-8,295	-166,360				38,69															
21:20:13.775	COM3	2000-0-0 16:24:8.575	0,511	-0,838	2,190	6,592	7,385	0,244	-9,267	-20,550	-68,264	3,875	72,433	31,550	41,15															
21:20:13.809	COM3	2000-0-0 16:24:8.595	0,478	-0,824	2,224	5,005	5,676	0,732	-9,283	-20,303	-68,340	3,875	72,433	31,550	41,21															
21:20:13.814	COM8	2000-0-0 16:21:50.815	0,184	0,938	2,292	-6,775	5,432	3,296	17,430	-8,135	-166,251				38,75															
21:20:13.815	COM8	2000-0-0 16:21:50.835	0,216	0,930	2,249	-5,432	-0,916	3,174	17,364	-8,086	-166,174				38,72															
21:20:13.830	COM3	2000-0-0 16:24:8.615	0,482	-0,865	2,234	2,625	-5,249	2,625	-9,377	-20,204	-68,357	3,875	72,433	31,550	41,15															
21:20:13.832	COM8	2000-0-0 16:21:50.855	0,216	0,938	2,240	-4,944	-5,066	3,845	17,331	-8,141	-166,124				38,78															
21:20:13.837	COM3	2000-0-0 16:24:8.635	0,484	-0,864	2,198	4,822	-5,188	2,563	-9,459	-20,204	-68,346	3,875	72,433	31,550	41,18															
21:20:13.846	COM8	2000-0-0 16:21:50.875	0,235	0,949	2,271	-5,249	-6,714	6,287	17,292	-8,262	-166,058				38,75															
21:20:13.855	COM3	2000-0-0 16:24:8.655	0,493	-0,829	2,176	4,822	-0,610	1,099	-9,514	-20,138	-68,362	3,875	72,433	31,550	41,15															
21:20:13.862	COM8	2000-0-0 16:21:50.895	0,217	0,933	2,282	-5,066	-11,353	8,362	17,238	-8,454	-165,965				38,72															
21:20:13.878	COM3	2000-0-0 16:24:8.675	0,448	-0,800	2,192	1,526	3,174	-0,549	-9,575	-19,990	-68,434	3,875	72,433	31,550	41,11															
21:20:13.883	COM8	2000-0-0 16:21:50.915	0,234	0,937	2,226	-2,991	-12,390	9,033	17,216	-8,696	-165,872				38,75															
21:20:13.899	COM3	2000-0-0 16:24:8.695	0,462	-0,830	2,165	-1,221	7,507	-3,418	-9,690	-19,781	-68,566	3,875	72,433	31,550	41,08															
21:20:13.903	COM8	2000-0-0 16:21:50.935	0,246	0,944	2,233	-2,991	-10,986	9,216	17,210	-8,937	-165,767				38,69															
21:20:13.915	COM3	2000-0-0 16:24:8.715	0,456	-0,850	2,156	-1,160	15,747	-6,104	-9,794	-19,446	-68,785	3,875	72,433	31,550	41,24															
21:20:13.929	COM8	2000-0-0 16:21:50.955	0,273	0,942	2,260	-4,272	-12,085	10,437	17,183	-9,163	-165,646				38,72															
21:20:13.941	COM8	2000-0-0 16:21:50.975	0,246	0,933	2,274	-5,066	-14,771	12,878	17,128	-9,459	-165,498				38,65															
21:20:13.958	COM3	2000-0-0 16:24:8.735	0,447	-0,840	2,176	-0,122	20,081	-10,620	-9,855	-19,001	-69,104	3,875	72,433	31,550	41,05															
21:20:13.959	COM3	2000-0-0 16:24:8.755	0,406	-0,829	2,214	-0,732	21,484	-15,320	-9,882	-18,539	-69,521	3,875	72,433	31,550	41,15															
21:20:13.965	COM8	2000-0-0 16:21:50.995	0,286	0,919	2,252	-4,578	-19,287	15,076	17,073	-9,833	-165,328				38,75															
21:20:13.975	COM3	2000-0-0 16:24:8.775	0,393	-0,830	2,236	2,014	26,184	-24,048	-9,833	-18,034	-70,109	3,875	72,433	31,550	41,15															
21:20:13.993	COM8	2000-0-0 16:21:51.015	0,295	0,918	2,234	-6,653	-15,076	17,700	16,985	-10,206	-165,108				38,72															
21:20:13.997	COM3	2000-0-0 16:24:8.795	0,541	-0,813	2,251	8,728	21,301	-33,081	-9,635	-17,556	-70,873	3,875	72,433	31,550	41,05															
21:20:14.000	COM8	2000-0-0 16:21:51.035	0,301	0,913	2,297	-8,911	-11,108	21,973	16,848	-10,508	-164,789				38,69															
21:20:14.018	COM3	2000-0-0 16:24:8.815	0,525	-0,742	2,315	13,062	16,602	-38,147	-9,256	-17,254	-71,768	3,875	72,433	31,550	41,18															
21:20:14.034	COM3	2000-0-0 16:24:8.835	0,492	-0,745	2,393	3,540	2,991	-38,574	-8,998	-17,100	-72,647	3,875	72,433	31,550	41,11															
21:20:14.040	COM8	2000-0-0 16:21:51.055	0,287	0,893	2,250	-10,132	-10,803	26,367	16,633	-10,800	-164,377				38,78															
21:20:14.042	COM8	2000-0-0 16:21:51.075	0,280	0,898	2,214	-10,071	-15,625	29,724	16,419	-11,179	-163,905				38,75															
21:20:14.057	COM3	2000-0-0 16:24:8.855	0,445	-0,792	2,329	-2,197	-26,123	-37,048	-8,910	-17,446	-73,449	3,875	72,433	31,550	41,15															
21:20:14.062	COM8	2000-0-0 16:21:51.095	0,329	0,893	2,185	-10,132	-10,071	33,630	16,177	-11,558	-163,361				38,78															
21:20:14.078	COM3	2000-0-0 16:24:8.875	0,464	-0,779	2,232	-4,700	-38,269	-37,292	-8,915	-18,171	-74,163	3,875	72,433	31,550	41,15															
21:20:14.087	COM8	2000-0-0 16:21:51.115	0,307	0,854	2,203	-11,169	5,554	40,466	15,886	-11,733	-162,636				38,75															
21:20:14.095	COM3	2000-0-0 16:24:8.895	0,462	-0,723	2,136	-7,080	-33,569	-42,786	-8,937	-18,929	-74,927	3,875	72,433	31,550	41,05															
21:20:14.102	COM8	2000-0-0 16:21:51.135	0,286	0,826	2,224	-6,409	21,179	48,523	15,584	-11,613	-161,664				38,62															
21:20:14.115	COM3	2000-0-0 16:24:8.915	0,501	-0,693	2,099	-14,160	-8,362	-49,194	-8,987	-19,341	-75,888	3,875	72,433	31,550	41,15															
21:20:14.127	COM8	2000-0-0 16:21:51.155	0,299	0,820	2,218	-0,488	30,823	54,565	15,375	-11,310	-160,488				38,65															
21:20:14.139	COM3	2000-0-0 16:24:8.935	0,537	-0,707	2,127	-22,095	14,832	-53,772	-9,102	-19,259	-77,069	3,875	72,433	31,550	41,05															
21:20:14.143	COM8	2000-0-0 16:21:51.175	0,313	0,827	2,177	3,601	43,518	61,218	15,227	-10,833	-159,131				38,75															
21:20:14.170	COM3	2000-0-0 16:24:8.955	0,584	-0,684	2,186	-30,212	26,917	-54,993	-9,360	-18,885	-78,344	3,875	72,433	31,550	41,15															
21:20:14.174	COM8	2000-0-0 16:21:51.195	0,300	0,849	2,199	2,625	54,138	66,650	15,090	-10,135	-157,593				38,69															
21:20:14.193	COM3	2000-0-0 16:24:8.975	0,575	-0,681	2,186	-36,560	34,302	-60,608	-9,723	-18,397	-79,717	3,875	72,433	31,550	41,08															
21:20:14.194	COM8	2000-0-0 16:21:51.215	0,363	0,858	2,188	2,502	49,133	71,777	14,936	-9,481	-155,956				38,84															
21:20:14.199	COM3	2000-0-0 16:24:8.995	0,611	-0,666	2,158	-42,908	50,476	-60,120	-10,201	-17,655	-81,194	3,875	72,433	31,550	41,11															
21:20:14.204	COM8	2000-0-0 16:21:51.235	0,362	0,825	2,211	3,723	51,636	77,271	14,804	-8,877	-154,226				38,69															
21:20:14.214	COM3	2000-0-0 16:24:9.015	0,713	-0,632	2,101	-45,410	61,523	-65,918	-10,723	-16,699	-82,766	3,875	72,433	31,550	41,11															
21:20:14.224	COM8	2000-0-0 16:21:51.255	0,403	0,842	2,248	1,953	55,054	81,360	14,667	-8,218	-152,375				38,69															
21:20:14.260	COM3	2000-0-0 16:24:9.035	0,583	-0,686	2,166	-54,382	79,834	-71,594	-11,365	-15,458	-84,518	3,875	72,433	31,550	41,05															
21:20:14.261	COM3	2000-0-0 16:24:9.055	0,492	-0,785	2,180	-53,040	100,525	-80,078	-12,008	-13,936	-86,561	3,875	72,433	31,550	41,05															
21:20:14.265	COM8	2000-0-0 16:21:51.275	0,364	0,895	2,254	-2,930	47,180	80,872	14,485	-7,657	-150,529				38,75															
21:20:14.266	COM8	2000-0-0 16:21:51.295	0,442	0,845	2,252	-5,554	35,828	79,895	14,238	-7,284	-148,760				38,75															
21:20:14.275	COM3	2000-0-0 16:24:9.075	0,266	-0,633	2,249	-49,805	112,915	-78,430	-12,607	-12,167	-88,693	3,875	72,433	31,550	41,11															
21:20:14.285	COM8	2000-0-0 16:21:51.315	0,512	0,783	2,280	-11,292	26,367	83,313	13,931	-7,119	-147,019				38,78															
21:20:14.294	COM3	2000-0-0 16:24:9.095	0,968	-0,468	2,648	-60,242	41,687	-72,083	-13,453	-10,992	-90,571	3,875	72,433	31,550	41,21															
21:20:14.309	COM8	2000-0-0 16:21:51.335	0,422	0,721	2,401	-7,080	15,930	85,754	13,596	-7,180	-145,256				38,75															
21:20:14.318	COM3	2000-0-0 16:24:9.115	0,708	-0,330	2,378	-49,500	-27,344	-81,604	-14,073	-11,591	-92,203	3,875	72,433	31,550	40,99															
21:20:14.323	COM8	2000-0-0 16:21:51.355	0,492	0,696	2,345	-4,089	8,240	87,769	13,337	-7,388	-143,509				38,72															
21:20:14.334	COM3	2000-0-0 16:24:9.135	0,514	-0,748	2,139	-56,885	11,475	-84,839	-14,974	-11,948	-93,878	3,875	72,433	31,550	41,11															
21:20:14.348	COM8	2000-0-0 16:21:51.375	0,520	0,697	2,342	-0,549	0,122	92,651	13,151	-7,784	-141,713				38,75															
21:20:14.363	COM3	2000-0-0 16:24:9.155	0,725	-0,731	2,055	-43,213	-28,259	-73,853	-15,606	-12,618	-95,444	3,875	72,433	31,550	41,11															
21:20:14.368	COM8	2000-0-0 16:21:51.395	0,517	0,650	2,359	-4,028	-5,676	94,177	12,909	-8,278	-139,878				38,72															
21:20:14.383	COM3	2000-0-0 16:24:9.175	0,791	-0,589	2,104	-33,813	-54,260	-72,571	-16,062	-13,958	-96,669	3,875	72,433	31,550	41,05															
21:20:14.387	COM8	2000-0-0 16:21:51.415	0,481	0,658	2,314	-7,813	-17,822	97,961	12,579	-8,954	-138,027				38,69															
21:20:14.394	COM3	2000-0-0 16:24:9.195	0,811	-0,520	2,143	-38,940	-37,109	-76,294	-16,496	-15,255	-97,943	3,875	72,433	31,550	41,05															
21:20:14.405	COM8	2000-0-0 16:21:51.435	0,623	0,572	2,272	-13,428	-23,560	101,929	12,096	-9,838	-136,148				38,75															
21:20:14.417	COM3	2000-0-0 16:24:9.215	0,802	-0,548	2,142	-40,955	-19,409	-81,543	-16,902	-16,210	-99,443	3,875	72,433	31,550	41,08															
21:20:14.420	COM8	2000-0-0 16:21:51.455	0,632	0,613	2,317	-22,339	-18,127	105,225	11,404	-10,646	-134,149				38,78															
21:20:14.438	COM3	2000-0-0 16:24:9.235	0,762	-0,555	2,077	-38,574	-2,441	-79,285	-17,238	-16,848	-101,047	3,875	72,433	31,550	41,05															
21:20:14.443	COM8	2000-0-0 16:21:51.475	0,689	0,570	2,379	-20,996	-22,034	104,980	10,624	-11,442	-132,122				38,72															
21:20:14.462	COM8	2000-0-0 16:21:51.495	0,754	0,515	2,334	-17,944	-29,297	103,699	9,915	-12,371	-130,139				38,78															
21:20:14.467	COM3	2000-0-0 16:24:9.255	0,805	-0,498	2,036	-32,166	-0,916	-80,811	-17,441	-17,331	-102,689	3,875	72,433	31,550	41,11															
21:20:14.484	COM3	2000-0-0 16:24:9.275	0,948	-0,486	2,087	-27,527	-5,981	-85,388	-17,474	-17,946	-104,403	3,875	72,433	31,550	41,02															
21:20:14.494	COM3	2000-0-0 16:24:9.295	0,975	-0,476	2,073	-26,367	-0,122	-85,022	-17,441	-18,506	-106,155	3,875	72,433	31,550	41,11															
21:20:14.498	COM8	2000-0-0 16:21:51.515	0,767	0,522	2,310	-13,184	-32,043	103,882	9,240	-13,282	-128,134				38,75															
21:20:14.506	COM8	2000-0-0 16:21:51.535	0,861	0,628	2,243	-8,728	-29,297	97,961	8,630	-14,260	-126,200				38,75															
21:20:14.543	COM3	2000-0-0 16:24:9.315	0,971	-0,508	2,057	-27,588	7,568	-84,167	-17,397	-18,946	-107,930	3,875	72,433	31,550	41,11															
21:20:14.544	COM3	2000-0-0 16:24:9.335	0,910	-0,512	2,049	-27,832	5,127	-81,238	-17,353	-19,319	-109,698	3,875	72,433	31,550	41,05															
21:20:14.546	COM8	2000-0-0 16:21:51.555	0,922	0,515	2,241	-2,380	-21,118	94,788	8,135	-14,991	-124,316				38,72															
21:20:14.568	COM8	2000-0-0 16:21:51.575	0,936	0,534	2,302	2,563	-20,020	91,492	7,745	-15,645	-122,481				38,75															
21:20:14.569	COM8	2000-0-0 16:21:51.595	0,914	0,545	2,262	5,737	-30,945	87,280	7,438	-16,425	-120,734				38,75															
21:20:14.573	COM3	2000-0-0 16:24:9.355	0,941	-0,433	1,983	-26,001	-4,700	-76,843	-17,320	-19,825	-111,341	3,875	72,433	31,550	41,08															
21:20:14.574	COM3	2000-0-0 16:24:9.375	0,948	-0,374	1,983	-24,353	-15,991	-75,012	-17,276	-20,539	-112,830	3,875	72,433	31,550	41,27															
21:20:14.584	COM8	2000-0-0 16:21:51.615	0,951	0,437	2,232	7,996	-26,001	85,510	7,158	-17,221	-119,026				38,75															
21:20:14.594	COM3	2000-0-0 16:24:9.395	0,895	-0,366	1,994	-25,879	-12,756	-74,768	-17,210	-21,270	-114,351	3,875	72,433	31,550	41,15															
21:20:14.601	COM8	2000-0-0 16:21:51.635	0,935	0,432	2,249	8,545	-28,625	81,665	6,905	-17,963	-117,372				38,69															
21:20:14.613	COM3	2000-0-0 16:24:9.415	0,929	-0,349	2,016	-24,231	-25,635	-73,303	-17,155	-22,099	-115,790	3,875	72,433	31,550	41,11															
21:20:14.627	COM8	2000-0-0 16:21:51.655	0,907	0,373	2,224	7,385	-31,616	78,674	6,630	-18,748	-115,790				38,69															
21:20:14.635	COM3	2000-0-0 16:24:9.435	0,921	-0,292	1,990	-21,057	-39,368	-72,144	-17,045	-23,203	-117,120	3,875	72,433	31,550	41,02															
21:20:14.642	COM8	2000-0-0 16:21:51.675	0,908	0,309	2,191	6,226	-33,386	76,843	6,328	-19,594	-114,252				38,56															
21:20:14.659	COM3	2000-0-0 16:24:9.455	0,843	-0,271	1,950	-18,555	-36,926	-72,693	-16,853	-24,362	-118,449	3,875	72,433	31,550	41,02															
21:20:14.663	COM8	2000-0-0 16:21:51.695	0,890	0,280	2,178	5,737	-30,701	76,233	5,988	-20,396	-112,720				38,72															
21:20:14.673	COM3	2000-0-0 16:24:9.475	0,887	-0,255	1,988	-14,648	-43,274	-74,036	-16,551	-25,488	-119,822	3,875	72,433	31,550	41,11															
21:20:14.684	COM8	2000-0-0 16:21:51.715	0,913	0,225	2,180	3,845	-26,672	75,439	5,587	-21,094	-111,187				38,69															
21:20:14.701	COM8	2000-0-0 16:21:51.735	0,871	0,233	2,166	-0,488	-24,292	74,524	5,098	-21,742	-109,655				38,75															
21:20:14.703	COM3	2000-0-0 16:24:9.495	0,928	-0,188	1,961	-10,254	-60,364	-75,867	-16,144	-26,971	-121,146	3,875	72,433	31,550	41,18															
21:20:14.722	COM8	2000-0-0 16:21:51.755	0,893	0,177	2,172	-0,916	-16,479	76,721	4,532	-22,247	-108,078				38,75															
21:20:14.725	COM3	2000-0-0 16:24:9.515	0,815	-0,138	1,916	-11,597	-46,082	-74,646	-15,677	-28,334	-122,509	3,875	72,433	31,550	41,15															
21:20:14.733	COM3	2000-0-0 16:24:9.535	0,837	-0,142	1,934	-8,850	-49,316	-76,416	-15,117	-29,575	-123,975	3,875	72,433	31,550	41,05															
21:20:14.743	COM8	2000-0-0 16:21:51.775	0,888	0,164	2,177	-3,540	-13,428	79,346	3,906	-22,604	-106,430				38,81															
21:20:14.753	COM3	2000-0-0 16:24:9.555	0,818	-0,106	1,916	-5,005	-61,646	-80,322	-14,442	-31,036	-125,447	3,875	72,433	31,550	41,11															
21:20:14.762	COM8	2000-0-0 16:21:51.795	0,893	0,141	2,180	-3,662	-12,390	81,116	3,203	-22,961	-104,711				38,75															
21:20:14.774	COM3	2000-0-0 16:24:9.575	0,857	-0,081	1,891	-2,319	-70,618	-84,961	-13,612	-32,629	-127,040	3,875	72,433	31,550	41,15															
21:20:14.784	COM8	2000-0-0 16:21:51.815	0,898	0,148	2,177	-4,517	-12,085	83,679	2,477	-23,275	-102,958				38,75															
21:20:14.793	COM3	2000-0-0 16:24:9.595	0,997	-0,056	1,901	-5,249	-77,271	-86,670	-12,711	-34,376	-128,694	3,875	72,433	31,550	41,02															
21:20:14.808	COM8	2000-0-0 16:21:51.835	0,927	0,148	2,163	-6,348	-23,621	87,646	1,681	-23,708	-101,118				38,72															
21:20:14.817	COM3	2000-0-0 16:24:9.615	1,053	-0,029	1,949	-7,935	-68,909	-85,510	-11,744	-36,079	-130,474	3,875	72,433	31,550	41,08															
21:20:14.825	COM8	2000-0-0 16:21:51.855	1,007	0,068	2,140	-9,399	-23,743	89,905	0,764	-24,203	-99,185				38,75															
21:20:14.834	COM3	2000-0-0 16:24:9.635	1,096	-0,033	1,874	-13,123	-41,016	-85,266	-10,778	-37,310	-132,391	3,875	72,433	31,550	41,15															
21:20:14.845	COM8	2000-0-0 16:21:51.875	1,032	0,134	2,178	-11,292	-24,414	89,417	-0,198	-24,681	-97,245				38,56															
21:20:14.854	COM3	2000-0-0 16:24:9.655	1,072	-0,002	1,780	-13,489	-11,902	-80,627	-9,778	-37,842	-134,407	3,875	72,433	31,550	41,05															
21:20:14.860	COM8	2000-0-0 16:21:51.895	1,063	0,132	2,203	-6,653	-18,860	87,646	-1,121	-25,065	-95,317				38,72															
21:20:14.897	COM3	2000-0-0 16:24:9.675	1,247	0,000	1,771	-6,592	-27,222	-78,552	-8,707	-38,353	-136,395	3,875	72,433	31,550	41,15															
21:20:14.898	COM3	2000-0-0 16:24:9.695	1,178	0,026	1,742	-0,732	-36,926	-72,144	-7,575	-39,144	-138,235	3,875	72,433	31,550	41,11															
21:20:14.904	COM8	2000-0-0 16:21:51.915	1,150	0,000	2,232	-5,493	-22,217	83,496	-1,967	-25,428	-93,444				38,75															
21:20:14.905	COM8	2000-0-0 16:21:51.935	1,036	0,041	2,186	-6,409	-23,743	78,491	-2,796	-25,790	-91,659				38,72															
21:20:14.939	COM3	2000-0-0 16:24:9.715	1,138	0,047	1,670	5,859	-27,527	-69,092	-6,350	-39,781	-140,004	3,875	72,433	31,550	41,11															
21:20:14.940	COM3	2000-0-0 16:24:9.735	1,179	0,071	1,667	12,512	-37,476	-65,674	-5,026	-40,485	-141,702	3,875	72,433	31,550	40,99															
21:20:14.954	COM8	2000-0-0 16:21:51.955	1,092	-0,020	2,133	-5,676	-29,602	76,538	-3,604	-26,208	-89,934				38,56															
21:20:14.955	COM8	2000-0-0 16:21:51.975	1,055	-0,010	2,118	-4,089	-43,457	71,289	-4,362	-26,856	-88,259				38,78															
21:20:14.959	COM3	2000-0-0 16:24:9.755	1,070	0,054	1,710	17,761	-43,762	-60,303	-3,653	-41,270	-143,322	3,875	72,433	31,550	41,18															
21:20:14.970	COM8	2000-0-0 16:21:51.995	1,114	-0,052	2,106	-2,808	-57,678	66,956	-5,109	-27,751	-86,638				38,62															
21:20:14.980	COM8	2000-0-0 16:21:52.015	1,063	-0,081	2,096	-0,366	-67,444	63,354	-5,812	-28,883	-85,084				38,78															
21:20:14.985	COM3	2000-0-0 16:24:9.775	0,996	0,120	1,774	19,165	-47,363	-57,434	-2,241	-42,089	-144,866	3,875	72,433	31,550	41,11															
21:20:14.997	COM3	2000-0-0 16:24:9.795	0,904	0,150	1,781	20,325	-72,571	-54,993	-0,797	-43,259	-146,393	3,875	72,433	31,550	40,96															
21:20:15.014	COM8	2000-0-0 16:21:52.035	0,947	-0,112	2,080	-0,854	-59,082	60,059	-6,498	-29,949	-83,546				38,78															
21:20:15.018	COM3	2000-0-0 16:24:9.815	0,956	0,156	1,788	17,822	-87,402	-55,908	0,670	-44,764	-147,991	3,875	72,433	31,550	41,21															
21:20:15.022	COM8	2000-0-0 16:21:52.055	0,937	-0,138	1,998	1,099	-48,767	58,655	-7,169	-30,806	-82,062				38,78															
21:20:15.032	COM3	2000-0-0 16:24:9.835	0,745	0,141	1,691	10,620	-64,331	-53,162	2,093	-46,060	-149,628	3,875	72,433	31,550	41,08															
21:20:15.057	COM3	2000-0-0 16:24:9.855	0,830	0,185	1,691	3,967	-45,532	-53,894	3,411	-46,796	-151,293	3,875	72,433	31,550	41,08															
21:20:15.077	COM3	2000-0-0 16:24:9.875	0,854	0,253	1,693	0,183	-47,607	-55,725	4,730	-47,439	-153,062	3,875	72,433	31,550	41,08															
21:20:15.092	COM3	2000-0-0 16:24:9.895	0,793	0,254	1,668	-7,385	-35,706	-57,800	5,966	-47,928	-154,874	3,875	72,433	31,550	41,02															
21:20:15.097	COM8	2000-0-0 16:21:52.075	0,982	-0,145	2,008	1,465	-38,879	57,983	-7,806	-31,426	-80,634				38,75															
21:20:15.098	COM8	2000-0-0 16:21:52.095	0,956	-0,198	2,043	2,197	-26,978	58,411	-8,459	-31,822	-79,222				38,78															
21:20:15.100	COM8	2000-0-0 16:21:52.115	1,002	-0,229	2,016	4,517	-14,465	58,899	-9,053	-31,937	-77,833				38,69															
21:20:15.103	COM8	2000-0-0 16:21:52.135	0,924	-0,227	2,053	7,629	6,104	59,631	-9,569	-31,701	-76,481				38,72															
21:20:15.113	COM3	2000-0-0 16:24:9.915	0,856	0,277	1,585	-10,986	-33,508	-57,129	7,147	-48,241	-156,753	3,875	72,433	31,550	41,05															
21:20:15.123	COM8	2000-0-0 16:21:52.155	0,981	-0,249	1,973	9,338	12,512	60,059	-10,036	-31,212	-75,185				38,72															
21:20:15.133	COM3	2000-0-0 16:24:9.935	0,808	0,284	1,584	-16,785	-28,992	-56,152	8,179	-48,422	-158,560	3,875	72,433	31,550	41,15															
21:20:15.142	COM8	2000-0-0 16:21:52.175	0,985	-0,327	2,022	11,902	14,771	61,218	-10,426	-30,668	-73,894				38,81															
21:20:15.151	COM3	2000-0-0 16:24:9.955	0,889	0,351	1,608	-19,165	-30,701	-52,307	9,097	-48,609	-160,296	3,875	72,433	31,550	41,11															
21:20:15.164	COM8	2000-0-0 16:21:52.195	0,924	-0,339	2,096	13,611	33,508	61,157	-10,745	-29,866	-72,609				38,56															
21:20:15.173	COM3	2000-0-0 16:24:9.975	0,888	0,396	1,583	-23,376	-28,809	-51,453	9,915	-48,757	-161,982	3,875	72,433	31,550	41,08															
21:20:15.180	COM8	2000-0-0 16:21:52.215	0,880	-0,328	2,070	13,245	50,293	62,622	-11,025	-28,718	-71,395				38,65															
21:20:15.195	COM3	2000-0-0 16:24:9.995	0,943	0,422	1,585	-28,137	-20,508	-45,959	10,585	-48,801	-163,564	3,875	72,433	31,550	41,08															
21:20:15.204	COM8	2000-0-0 16:21:52.235	0,951	-0,344	2,045	13,794	51,941	58,533	-11,206	-27,460	-70,334				38,69															
21:20:15.211	COM3	2000-0-0 16:24:10.015	0,904	0,411	1,523	-29,297	-5,737	-38,147	10,959	-48,642	-164,844	3,875	72,433	31,550	41,08															
21:20:15.223	COM8	2000-0-0 16:21:52.255	1,031	-0,329	1,998	12,451	55,786	51,392	-11,321	-26,125	-69,445				38,59															
21:20:15.235	COM3	2000-0-0 16:24:10.035	0,908	0,430	1,499	-27,405	8,484	-35,645	11,146	-48,170	-165,861	3,875	72,433	31,550	41,08															
21:20:15.267	COM8	2000-0-0 16:21:52.275	1,015	-0,345	2,044	8,545	49,683	45,532	-11,426	-24,917	-68,637				38,78															
21:20:15.268	COM8	2000-0-0 16:21:52.295	0,974	-0,353	2,056	4,333	40,955	44,922	-11,580	-23,868	-67,890				38,81															
21:20:15.273	COM3	2000-0-0 16:24:10.055	0,992	0,437	1,491	-21,118	5,981	-36,987	11,437	-47,598	-166,838	3,875	72,433	31,550	41,15															
21:20:15.274	COM3	2000-0-0 16:24:10.075	0,920	0,454	1,568	-16,479	-2,441	-31,189	11,805	-47,252	-167,794	3,875	72,433	31,550	41,11															
21:20:15.295	COM8	2000-0-0 16:21:52.315	0,887	-0,411	2,086	1,526	14,648	45,349	-11,843	-23,198	-67,061				38,81															
21:20:15.299	COM3	2000-0-0 16:24:10.095	0,893	0,406	1,496	-7,446	-0,427	-32,166	12,266	-46,950	-168,668	3,875	72,433	31,550	41,05															
21:20:15.320	COM8	2000-0-0 16:21:52.335	1,092	-0,494	2,035	-11,658	-18,921	27,283	-12,228	-23,165	-66,204				38,78															
21:20:15.322	COM8	2000-0-0 16:21:52.355	1,078	-0,341	2,068	-11,230	-42,053	29,785	-12,662	-23,730	-65,490				38,72															
21:20:15.325	COM3	2000-0-0 16:24:10.115	0,875	0,411	1,548	2,563	-14,648	-37,781	13,035	-46,747	-169,706	3,875	72,433	31,550	41,02															
21:20:15.332	COM3	2000-0-0 16:24:10.135	0,843	0,418	1,633	4,639	-31,555	-37,354	14,030	-46,857	-170,931	3,875	72,433	31,550	41,11															
21:20:15.348	COM8	2000-0-0 16:21:52.375	0,831	-0,382	2,183	-12,024	-36,377	34,424	-13,222	-24,384	-64,633				38,65															
21:20:15.357	COM3	2000-0-0 16:24:10.155	0,845	0,417	1,671	3,784	-37,292	-34,119	15,035	-47,159	-172,183	3,875	72,433	31,550	41,11															
21:20:15.365	COM8	2000-0-0 16:21:52.395	0,874	-0,447	2,144	-12,451	-33,997	31,128	-13,821	-24,873	-63,743				38,69															
21:20:15.378	COM3	2000-0-0 16:24:10.175	0,847	0,394	1,600	3,357	-22,034	-32,654	15,919	-47,329	-173,287	3,875	72,433	31,550	41,05															
21:20:15.382	COM8	2000-0-0 16:21:52.415	0,885	-0,427	2,130	-12,390	-21,973	22,888	-14,321	-25,263	-63,040				38,72															
21:20:15.392	COM3	2000-0-0 16:24:10.195	0,997	0,403	1,602	2,075	-5,371	-29,663	16,650	-47,131	-174,205	3,875	72,433	31,550	41,15															
21:20:15.402	COM8	2000-0-0 16:21:52.435	1,244	-0,399	2,161	-7,385	-14,160	15,503	-14,672	-25,488	-62,622				38,75															
21:20:15.412	COM3	2000-0-0 16:24:10.215	1,253	0,376	1,729	-1,831	2,991	-27,771	17,188	-46,736	-174,963	3,875	72,433	31,550	41,08															
21:20:15.427	COM8	2000-0-0 16:21:52.455	1,058	-0,307	2,536	10,437	1,343	-1,587	-14,661	-25,675	-62,419				38,84															
21:20:15.439	COM3	2000-0-0 16:24:10.235	0,762	0,321	1,717	-7,996	23,376	2,380	17,166	-46,208	-175,144	3,875	72,433	31,550	41,18															
21:20:15.440	COM8	2000-0-0 16:21:52.475	0,965	-0,541	1,897	-3,601	42,175	-26,855	-14,266	-25,076	-63,226				38,75															
21:20:15.457	COM3	2000-0-0 16:24:10.255	0,842	0,602	1,470	-5,371	15,442	7,263	16,661	-45,577	-174,622	3,875	72,433	31,550	41,08															
21:20:15.493	COM3	2000-0-0 16:24:10.275	0,747	0,507	1,583	-0,061	-12,573	0,977	16,595	-45,500	-174,573	3,875	72,433	31,550	41,11															
21:20:15.494	COM3	2000-0-0 16:24:10.295	0,668	0,485	1,618	-1,038	-5,859	-5,005	16,672	-45,472	-174,694	3,875	72,433	31,550	41,18															
21:20:15.500	COM8	2000-0-0 16:21:52.495	0,907	-0,358	2,032	5,981	-15,564	-6,165	-14,008	-25,093	-63,490				38,69															
21:20:15.501	COM8	2000-0-0 16:21:52.515	0,797	-0,427	2,039	0,854	-20,386	-1,831	-13,942	-25,505	-63,512				38,72															
21:20:15.502	COM8	2000-0-0 16:21:52.535	0,808	-0,428	2,026	1,343	-12,451	-1,465	-13,914	-25,785	-63,463				38,78															
21:20:15.537	COM3	2000-0-0 16:24:10.315	0,711	0,439	1,588	-0,793	3,052	-6,714	16,743	-45,214	-174,809	3,875	72,433	31,550	41,11															
21:20:15.538	COM3	2000-0-0 16:24:10.335	0,816	0,433	1,647	0,122	3,357	-7,141	16,831	-44,896	-174,930	3,875	72,433	31,550	40,99															
21:20:15.542	COM8	2000-0-0 16:21:52.555	0,801	-0,411	2,108	1,770	-1,953	-4,028	-13,826	-25,906	-63,512				38,81															
21:20:15.543	COM8	2000-0-0 16:21:52.575	0,912	-0,405	2,101	1,892	11,475	-6,226	-13,700	-25,763	-63,693				38,75															
21:20:15.550	COM3	2000-0-0 16:24:10.355	0,799	0,441	1,637	0,427	14,099	-3,113	16,831	-44,456	-174,924	3,875	72,433	31,550	41,15															
21:20:15.562	COM8	2000-0-0 16:21:52.595	0,896	-0,396	2,071	3,113	4,700	-8,301	-13,524	-25,604	-63,935				38,78															
21:20:15.580	COM3	2000-0-0 16:24:10.375	0,802	0,442	1,611	1,587	13,245	-1,099	16,771	-43,951	-174,809	3,875	72,433	31,550	41,05															
21:20:15.589	COM8	2000-0-0 16:21:52.615	1,000	-0,406	2,047	2,747	-2,991	-7,568	-13,365	-25,598	-64,133				38,75															
21:20:15.597	COM3	2000-0-0 16:24:10.395	0,811	0,457	1,625	2,991	4,761	-1,282	16,765	-43,583	-174,727	3,875	72,433	31,550	41,08															
21:20:15.609	COM8	2000-0-0 16:21:52.635	0,927	-0,382	2,055	3,967	-9,033	-2,869	-13,244	-25,752	-64,199				38,65															
21:20:15.613	COM3	2000-0-0 16:24:10.415	0,796	0,460	1,647	2,625	-0,305	-3,723	16,842	-43,330	-174,754	3,875	72,433	31,550	41,05															
21:20:15.637	COM8	2000-0-0 16:21:52.655	0,876	-0,394	2,097	3,479	-0,916	-0,183	-13,140	-25,812	-64,221				38,81															
21:20:15.663	COM3	2000-0-0 16:24:10.435	0,787	0,450	1,631	1,831	0,183	-4,578	16,941	-43,099	-174,836	3,875	72,433	31,550	41,08															
21:20:15.664	COM3	2000-0-0 16:24:10.455	0,778	0,457	1,601	2,075	1,404	-3,479	17,018	-42,852	-174,891	3,875	72,433	31,550	41,15															
21:20:15.665	COM8	2000-0-0 16:21:52.675	0,855	-0,401	2,095	4,089	4,883	0,549	-13,024	-25,724	-64,243				38,75															
21:20:15.666	COM8	2000-0-0 16:21:52.695	0,877	-0,407	2,089	4,761	1,709	-1,465	-12,898	-25,631	-64,303				38,72															
21:20:15.672	COM3	2000-0-0 16:24:10.475	0,789	0,448	1,595	3,052	3,906	-2,808	17,078	-42,567	-174,908	3,875	72,433	31,550	41,08															
21:20:15.682	COM8	2000-0-0 16:21:52.715	0,944	-0,395	2,074	3,174	-3,784	-1,770	-12,783	-25,637	-64,352				38,78															
21:20:15.690	COM3	2000-0-0 16:24:10.495	0,811	0,469	1,607	4,028	3,296	-2,625	17,150	-42,281	-174,902	3,875	72,433	31,550	41,15															
21:20:15.705	COM8	2000-0-0 16:21:52.735	0,918	-0,381	2,083	3,418	-5,249	-0,732	-12,689	-25,719	-64,380				38,62															
21:20:15.715	COM3	2000-0-0 16:24:10.515	0,811	0,469	1,637	4,211	1,587	-2,747	17,249	-42,023	-174,919	3,875	72,433	31,550	41,05															
21:20:15.722	COM8	2000-0-0 16:21:52.755	0,937	-0,414	2,095	2,197	0,854	-0,427	-12,612	-25,686	-64,402				38,84															
21:20:15.732	COM3	2000-0-0 16:24:10.535	0,793	0,460	1,631	3,357	1,282	-2,136	17,325	-41,786	-174,935	3,875	72,433	31,550	41,08															
21:20:15.742	COM8	2000-0-0 16:21:52.775	0,902	-0,393	2,080	1,770	-0,732	0,916	-12,557	-25,642	-64,407				38,62															
21:20:15.750	COM3	2000-0-0 16:24:10.555	0,802	0,461	1,609	2,991	0,793	-1,770	17,386	-41,556	-174,935	3,875	72,433	31,550	41,08															
21:20:15.765	COM8	2000-0-0 16:21:52.795	0,893	-0,389	2,085	0,000	0,610	0,671	-12,519	-25,604	-64,407				38,81															
21:20:15.774	COM3	2000-0-0 16:24:10.575	0,791	0,467	1,609	3,540	-0,549	-0,732	17,446	-41,369	-174,924	3,875	72,433	31,550	41,18															
21:20:15.780	COM8	2000-0-0 16:21:52.815	0,906	-0,405	2,087	0,000	-2,258	0,244	-12,513	-25,598	-64,418				38,84															
21:20:15.797	COM3	2000-0-0 16:24:10.595	0,810	0,469	1,617	4,272	1,221	0,244	17,496	-41,166	-174,886	3,875	72,433	31,550	41,02															
21:20:15.803	COM8	2000-0-0 16:21:52.835	0,928	-0,399	2,089	-1,587	-0,854	-0,305	-12,513	-25,593	-64,440				38,69															
21:20:15.810	COM3	2000-0-0 16:24:10.615	0,822	0,467	1,626	5,127	0,854	0,366	17,562	-40,963	-174,836	3,875	72,433	31,550	41,15															
21:20:15.823	COM8	2000-0-0 16:21:52.855	0,916	-0,393	2,088	-2,319	1,831	-0,244	-12,530	-25,554	-64,468				38,65															
21:20:15.837	COM3	2000-0-0 16:24:10.635	0,825	0,463	1,617	5,920	1,160	1,770	17,617	-40,770	-174,765	3,875	72,433	31,550	41,08															
21:20:15.840	COM8	2000-0-0 16:21:52.875	0,906	-0,397	2,076	-3,113	0,610	-1,099	-12,557	-25,505	-64,506				38,72															
21:20:15.857	COM3	2000-0-0 16:24:10.655	0,822	0,455	1,609	7,019	0,549	3,540	17,672	-40,583	-174,650	3,875	72,433	31,550	41,02															
21:20:15.872	COM3	2000-0-0 16:24:10.675	0,813	0,458	1,600	7,813	2,686	3,723	17,726	-40,402	-174,507	3,875	72,433	31,550	41,24															
21:20:15.885	COM8	2000-0-0 16:21:52.895	0,921	-0,390	2,066	-3,479	-0,977	-3,479	-12,574	-25,499	-64,589				38,78															
21:20:15.887	COM8	2000-0-0 16:21:52.915	1,004	-0,379	2,079	-6,042	2,197	-4,578	-12,607	-25,488	-64,704				38,72															
21:20:15.890	COM3	2000-0-0 16:24:10.695	0,804	0,457	1,605	9,155	2,258	2,808	17,798	-40,193	-174,370	3,875	72,433	31,550	41,21															
21:20:15.909	COM8	2000-0-0 16:21:52.935	1,022	-0,377	2,114	-10,498	17,517	-3,967	-12,700	-25,285	-64,869				38,69															
21:20:15.913	COM3	2000-0-0 16:24:10.715	0,771	0,458	1,604	9,644	2,075	4,211	17,891	-40,012	-174,227	3,875	72,433	31,550	40,96															
21:20:15.928	COM8	2000-0-0 16:21:52.955	0,956	-0,342	2,090	-17,395	59,998	-3,906	-12,849	-24,390	-65,165				38,75															
21:20:15.932	COM3	2000-0-0 16:24:10.735	0,814	0,460	1,601	9,338	0,793	4,456	17,985	-39,847	-174,089	3,875	72,433	31,550	41,11															
21:20:15.942	COM8	2000-0-0 16:21:52.975	1,028	-0,351	1,955	-24,658	58,533	-6,348	-13,118	-23,247	-65,616				38,78															
21:20:15.951	COM3	2000-0-0 16:24:10.755	0,775	0,443	1,620	7,996	5,981	4,761	18,034	-39,639	-173,919	3,875	72,433	31,550	41,11															
21:20:15.966	COM8	2000-0-0 16:21:52.995	0,981	-0,398	2,127	-15,564	27,466	-2,258	-13,359	-22,582	-65,951				38,72															
21:20:15.970	COM3	2000-0-0 16:24:10.775	0,736	0,431	1,592	6,042	5,615	6,104	18,018	-39,370	-173,710	3,875	72,433	31,550	41,11															
21:20:15.982	COM8	2000-0-0 16:21:53.015	0,799	-0,419	2,255	-13,611	36,743	1,038	-13,557	-22,050	-66,138				38,78															
21:20:16.019	COM3	2000-0-0 16:24:10.795	0,856	0,434	1,583	8,179	-9,583	5,310	18,045	-39,309	-173,562	3,875	72,433	31,550	41,08															
21:20:16.020	COM3	2000-0-0 16:24:10.815	0,958	0,416	1,572	8,789	-20,996	6,775	18,188	-39,529	-173,535	3,875	72,433	31,550	41,11															
21:20:16.022	COM8	2000-0-0 16:21:53.035	0,837	-0,449	2,155	-11,292	39,429	-17,822	-13,612	-21,324	-66,506				38,72															
21:20:16.023	COM8	2000-0-0 16:21:53.055	0,859	-0,380	2,121	-7,751	24,536	-18,738	-13,579	-20,852	-67,017				38,78															
21:20:16.039	COM3	2000-0-0 16:24:10.835	0,952	0,431	1,570	6,531	-5,005	15,930	18,160	-39,688	-173,298	3,875	72,433	31,550	41,18															
21:20:16.049	COM3	2000-0-0 16:24:10.855	0,884	0,431	1,545	6,409	12,085	21,790	17,897	-39,512	-172,722	3,875	72,433	31,550	41,08															
21:20:16.057	COM8	2000-0-0 16:21:53.075	1,015	-0,394	2,113	-2,625	2,197	-19,653	-13,475	-20,748	-67,500				38,78															
21:20:16.060	COM8	2000-0-0 16:21:53.095	0,987	-0,399	2,209	2,686	-3,235	-21,362	-13,282	-20,918	-67,928				38,81															
21:20:16.078	COM3	2000-0-0 16:24:10.875	0,917	0,440	1,544	8,362	5,615	24,231	17,600	-39,337	-172,035	3,875	72,433	31,550	41,18															
21:20:16.088	COM8	2000-0-0 16:21:53.115	1,046	-0,384	2,136	6,470	-12,695	-25,024	-12,997	-21,226	-68,395				38,81															
21:20:16.092	COM3	2000-0-0 16:24:10.895	0,894	0,438	1,596	8,850	-5,737	28,442	17,353	-39,397	-171,381	3,875	72,433	31,550	41,05															
21:20:16.111	COM8	2000-0-0 16:21:53.135	0,959	-0,362	2,174	9,155	-7,324	-29,541	-12,596	-21,588	-68,939				38,72															
21:20:16.118	COM3	2000-0-0 16:24:10.915	0,889	0,428	1,591	7,446	-0,305	33,081	17,012	-39,507	-170,607	3,875	72,433	31,550	41,08															
21:20:16.124	COM8	2000-0-0 16:21:53.155	0,985	-0,374	2,134	9,827	-6,775	-34,546	-12,140	-21,857	-69,626				38,72															
21:20:16.138	COM3	2000-0-0 16:24:10.935	0,897	0,423	1,563	6,409	5,798	36,926	16,556	-39,518	-169,684	3,875	72,433	31,550	41,08															
21:20:16.142	COM8	2000-0-0 16:21:53.175	1,064	-0,344	2,122	12,329	-11,292	-39,185	-11,618	-22,220	-70,384				38,69															
21:20:16.150	COM3	2000-0-0 16:24:10.955	0,921	0,415	1,532	6,226	14,893	40,344	15,996	-39,391	-168,624	3,875	72,433	31,550	41,15															
21:20:16.177	COM3	2000-0-0 16:24:10.975	1,005	0,429	1,538	7,690	13,306	46,692	15,364	-39,216	-167,404	3,875	72,433	31,550	41,08															
21:20:16.180	COM8	2000-0-0 16:21:53.195	1,096	-0,333	2,104	13,794	-10,193	-45,776	-10,997	-22,643	-71,268				38,72															
21:20:16.182	COM8	2000-0-0 16:21:53.215	1,046	-0,330	2,127	13,977	-2,258	-52,429	-10,316	-22,939	-72,323				38,78															
21:20:16.189	COM3	2000-0-0 16:24:10.995	0,987	0,412	1,560	10,010	10,864	54,382	14,700	-39,122	-166,036	3,875	72,433	31,550	41,08															
21:20:16.200	COM8	2000-0-0 16:21:53.235	1,042	-0,317	2,159	13,428	-12,634	-57,312	-9,580	-23,313	-73,510				38,75															
21:20:16.219	COM3	2000-0-0 16:24:11.015	0,929	0,389	1,584	14,893	-2,014	61,646	13,997	-39,260	-164,509	3,875	72,433	31,550	41,02															
21:20:16.223	COM8	2000-0-0 16:21:53.255	0,996	-0,337	2,156	16,968	-24,170	-65,125	-8,767	-23,928	-74,784				38,75															
21:20:16.239	COM3	2000-0-0 16:24:11.035	0,930	0,346	1,551	19,592	-6,958	67,383	13,348	-39,589	-162,894	3,875	72,433	31,550	41,18															
21:20:16.248	COM8	2000-0-0 16:21:53.275	1,069	-0,271	2,043	12,390	-25,146	-69,824	-7,938	-24,631	-76,212				38,72															
21:20:16.251	COM3	2000-0-0 16:24:11.055	0,889	0,327	1,605	21,851	-0,305	67,993	12,695	-39,847	-161,186	3,875	72,433	31,550	41,11															
21:20:16.270	COM8	2000-0-0 16:21:53.295	1,034	-0,242	2,169	11,047	-14,526	-73,425	-7,053	-25,197	-77,750				38,72															
21:20:16.277	COM3	2000-0-0 16:24:11.075	0,877	0,326	1,606	24,536	12,024	68,237	12,057	-39,847	-159,412	3,875	72,433	31,550	41,15															
21:20:16.283	COM8	2000-0-0 16:21:53.315	0,950	-0,282	2,145	9,033	5,005	-73,364	-6,240	-25,400	-79,371				38,72															
21:20:16.297	COM3	2000-0-0 16:24:11.095	0,930	0,256	1,572	29,236	11,780	66,223	11,497	-39,732	-157,643	3,875	72,433	31,550	41,15															
21:20:16.301	COM8	2000-0-0 16:21:53.335	0,957	-0,170	2,065	3,174	0,305	-76,477	-5,422	-25,499	-81,068				38,69															
21:20:16.310	COM3	2000-0-0 16:24:11.115	0,943	0,236	1,575	33,508	15,381	68,787	11,003	-39,661	-155,847	3,875	72,433	31,550	41,18															
21:20:16.326	COM8	2000-0-0 16:21:53.355	1,030	-0,167	2,100	1,892	-6,653	-80,811	-4,647	-25,724	-82,804				38,75															
21:20:16.330	COM3	2000-0-0 16:24:11.135	0,963	0,208	1,571	36,560	31,738	69,092	10,536	-39,276	-153,990	3,875	72,433	31,550	41,15															
21:20:16.343	COM8	2000-0-0 16:21:53.375	1,080	-0,186	2,148	-1,587	5,066	-81,116	-3,933	-25,856	-84,611				38,75															
21:20:16.349	COM3	2000-0-0 16:24:11.155	1,022	0,186	1,564	40,344	42,603	69,519	10,102	-38,644	-152,062	3,875	72,433	31,550	41,18															
21:20:16.392	COM8	2000-0-0 16:21:53.395	1,020	-0,164	2,176	-0,732	33,264	-86,670	-3,164	-25,516	-86,528				38,88															
21:20:16.393	COM3	2000-0-0 16:24:11.175	1,100	0,142	1,543	43,396	48,889	71,533	9,728	-37,886	-150,095	3,875	72,433	31,550	41,08															
21:20:16.394	COM3	2000-0-0 16:24:11.195	1,104	0,110	1,576	46,570	58,838	74,402	9,393	-36,996	-148,063	3,875	72,433	31,550	41,08															
21:20:16.398	COM8	2000-0-0 16:21:53.415	0,970	-0,064	2,066	-2,625	25,696	-87,219	-2,395	-24,977	-88,500				38,72															
21:20:16.400	COM8	2000-0-0 16:21:53.435	1,128	0,011	2,103	-3,174	-3,845	-91,125	-1,648	-24,933	-90,494				38,72															
21:20:16.408	COM3	2000-0-0 16:24:11.215	1,021	0,077	1,588	47,424	75,073	77,209	9,047	-35,804	-145,926	3,875	72,433	31,550	41,11															
21:20:16.427	COM8	2000-0-0 16:21:53.455	1,125	-0,043	2,167	-5,188	-0,122	-93,628	-0,923	-25,082	-92,549				38,75															
21:20:16.438	COM3	2000-0-0 16:24:11.235	1,008	0,059	1,593	48,523	69,946	83,618	8,679	-34,568	-143,679	3,875	72,433	31,550	41,08															
21:20:16.443	COM8	2000-0-0 16:21:53.475	1,031	-0,003	2,187	-2,808	25,818	-98,022	-0,137	-24,780	-94,697				38,69															
21:20:16.455	COM3	2000-0-0 16:24:11.255	1,048	0,000	1,611	50,903	52,734	86,182	8,383	-33,629	-141,443	3,875	72,433	31,550	40,99															
21:20:16.469	COM8	2000-0-0 16:21:53.495	0,889	0,048	2,141	-1,099	24,231	-99,731	0,687	-24,263	-96,888				38,75															
21:20:16.473	COM3	2000-0-0 16:24:11.275	1,091	-0,021	1,643	52,673	46,021	88,257	8,163	-32,921	-139,224	3,875	72,433	31,550	41,05															
21:20:16.488	COM3	2000-0-0 16:24:11.295	0,944	-0,073	1,670	50,964	51,331	88,501	7,943	-32,212	-137,010	3,875	72,433	31,550	41,15															
21:20:16.489	COM8	2000-0-0 16:21:53.515	1,063	0,162	2,016	-4,272	-10,742	-98,755	1,483	-24,241	-99,080				38,72															
21:20:16.503	COM8	2000-0-0 16:21:53.535	1,027	0,123	2,147	-8,545	-19,043	-100,464	2,230	-24,571	-101,305				38,81															
21:20:16.513	COM3	2000-0-0 16:24:11.315	0,816	-0,036	1,726	48,340	62,805	83,130	7,668	-31,273	-134,786	3,875	72,433	31,550	41,18															
21:20:16.519	COM8	2000-0-0 16:21:53.555	0,979	0,120	2,146	-8,606	-3,845	-100,830	2,966	-24,675	-103,535				38,69															
21:20:16.539	COM3	2000-0-0 16:24:11.335	0,945	-0,141	1,688	51,941	31,494	87,891	7,427	-30,619	-132,561	3,875	72,433	31,550	41,08															
21:20:16.543	COM8	2000-0-0 16:21:53.575	0,935	0,188	2,129	-6,348	11,047	-101,501	3,719	-24,439	-105,765				38,69															
21:20:16.550	COM3	2000-0-0 16:24:11.355	0,896	-0,133	1,748	53,101	23,682	87,952	7,355	-30,388	-130,507	3,875	72,433	31,550	41,21															
21:20:16.568	COM8	2000-0-0 16:21:53.595	0,842	0,221	2,106	-6,897	-0,427	-103,333	4,477	-24,175	-108,001				38,69															
21:20:16.572	COM3	2000-0-0 16:24:11.375	0,895	-0,137	1,796	49,744	26,489	84,106	7,245	-30,070	-128,469	3,875	72,433	31,550	41,18															
21:20:16.585	COM8	2000-0-0 16:21:53.615	0,960	0,297	2,032	-10,742	-12,329	-100,891	5,164	-24,142	-110,259				38,72															
21:20:16.590	COM3	2000-0-0 16:24:11.395	0,800	-0,178	1,827	45,532	22,400	76,538	7,152	-29,762	-126,617	3,875	72,433	31,550	41,05															
21:20:16.605	COM8	2000-0-0 16:21:53.635	0,916	0,258	2,085	-15,686	-10,498	-99,243	5,768	-24,208	-112,473				38,59															
21:20:16.609	COM3	2000-0-0 16:24:11.415	0,786	-0,214	1,810	45,166	14,893	72,632	7,092	-29,586	-124,898	3,875	72,433	31,550	41,15															
21:20:16.622	COM8	2000-0-0 16:21:53.655	0,936	0,280	2,143	-15,625	9,338	-99,487	6,306	-23,983	-114,659				38,65															
21:20:16.635	COM3	2000-0-0 16:24:11.435	0,790	-0,219	1,782	45,105	9,644	68,115	7,092	-29,515	-123,327	3,875	72,433	31,550	41,15															
21:20:16.644	COM8	2000-0-0 16:21:53.675	0,843	0,327	2,133	-18,738	27,039	-98,999	6,779	-23,340	-116,768				38,62															
21:20:16.658	COM3	2000-0-0 16:24:11.455	0,795	-0,249	1,782	43,457	11,841	68,542	7,059	-29,416	-121,772	3,875	72,433	31,550	41,11															
21:20:16.660	COM8	2000-0-0 16:21:53.695	0,834	0,347	2,124	-17,273	31,128	-98,938	7,207	-22,495	-118,834				38,72															
21:20:16.673	COM3	2000-0-0 16:24:11.475	0,785	-0,245	1,813	42,908	12,573	70,374	6,987	-29,295	-120,174	3,875	72,433	31,550	41,15															
21:20:16.683	COM8	2000-0-0 16:21:53.715	0,918	0,409	2,120	-18,005	24,963	-96,375	7,597	-21,736	-120,861				38,75															
21:20:16.692	COM3	2000-0-0 16:24:11.495	0,635	-0,312	1,805	45,105	3,479	71,655	6,899	-29,268	-118,537	3,875	72,433	31,550	41,18															
21:20:16.707	COM8	2000-0-0 16:21:53.735	0,864	0,420	2,190	-16,541	29,419	-96,558	7,960	-20,956	-122,844				38,69															
21:20:16.710	COM3	2000-0-0 16:24:11.515	0,920	-0,271	1,832	55,847	-19,836	82,886	6,905	-29,592	-116,829	3,875	72,433	31,550	41,08															
21:20:16.747	COM3	2000-0-0 16:24:11.535	0,949	-0,413	1,911	59,875	-31,128	83,130	6,899	-30,344	-114,835	3,875	72,433	31,550	41,05															
21:20:16.748	COM3	2000-0-0 16:24:11.555	0,854	-0,458	1,878	51,941	-9,155	81,299	6,751	-30,778	-112,835	3,875	72,433	31,550	40,96															
21:20:16.754	COM8	2000-0-0 16:21:53.755	0,821	0,407	2,193	-12,573	45,654	-96,313	8,350	-19,924	-124,772				38,84															
21:20:16.777	COM3	2000-0-0 16:24:11.575	0,714	-0,544	1,831	44,922	12,085	77,087	6,564	-30,795	-111,028	3,875	72,433	31,550	41,18															
21:20:16.779	COM8	2000-0-0 16:21:53.775	0,740	0,437	2,220	-7,813	57,251	-92,346	8,751	-18,622	-126,579				38,72															
21:20:16.780	COM8	2000-0-0 16:21:53.795	0,677	0,499	2,170	-7,141	51,758	-92,529	9,168	-17,271	-128,337				38,72															
21:20:16.782	COM8	2000-0-0 16:21:53.815	0,764	0,552	2,178	-5,310	40,894	-92,590	9,553	-16,139	-130,100				38,72															
21:20:16.789	COM3	2000-0-0 16:24:11.595	0,933	-0,528	1,823	43,823	27,588	78,369	6,356	-30,471	-109,232	3,875	72,433	31,550	41,05															
21:20:16.817	COM3	2000-0-0 16:24:11.615	0,676	-0,571	1,881	46,570	32,776	69,458	6,202	-29,982	-107,518	3,875	72,433	31,550	41,11															
21:20:16.820	COM8	2000-0-0 16:21:53.835	0,712	0,512	2,231	-5,920	41,260	-91,431	9,893	-15,095	-131,858				38,84															
21:20:16.823	COM8	2000-0-0 16:21:53.855	0,664	0,530	2,245	-4,944	53,833	-87,769	10,217	-13,909	-133,522				38,81															
21:20:16.828	COM3	2000-0-0 16:24:11.635	0,749	-0,505	1,925	44,373	37,170	69,519	6,015	-29,295	-105,837	3,875	72,433	31,550	41,02															
21:20:16.842	COM8	2000-0-0 16:21:53.875	0,563	0,569	2,290	-2,014	57,312	-84,961	10,530	-12,552	-135,066				38,75															
21:20:16.850	COM3	2000-0-0 16:24:11.655	0,882	-0,447	1,958	42,664	37,781	65,308	5,916	-28,647	-104,293	3,875	72,433	31,550	41,15															
21:20:16.865	COM8	2000-0-0 16:21:53.895	0,596	0,598	2,248	-4,333	46,265	-81,116	10,783	-11,321	-136,544				38,69															
21:20:16.874	COM3	2000-0-0 16:24:11.675	0,696	-0,582	1,939	35,156	42,786	59,937	5,740	-27,856	-102,859	3,875	72,433	31,550	41,15															
21:20:16.880	COM8	2000-0-0 16:21:53.915	0,563	0,636	2,256	-3,174	35,461	-79,224	10,992	-10,327	-137,994				38,72															
21:20:16.894	COM3	2000-0-0 16:24:11.695	0,686	-0,611	1,936	33,752	35,278	58,838	5,532	-27,153	-101,486	3,875	72,433	31,550	41,15															
21:20:16.908	COM8	2000-0-0 16:21:53.935	0,570	0,682	2,276	-6,592	24,841	-77,454	11,151	-9,536	-139,449				38,69															
21:20:16.913	COM3	2000-0-0 16:24:11.715	0,673	-0,552	1,945	35,767	34,424	56,885	5,400	-26,532	-100,173	3,875	72,433	31,550	41,15															
21:20:16.929	COM3	2000-0-0 16:24:11.735	0,707	-0,563	1,966	34,546	37,781	53,406	5,273	-25,823	-98,915	3,875	72,433	31,550	41,11															
21:20:16.935	COM8	2000-0-0 16:21:53.955	0,551	0,702	2,335	-5,310	11,292	-77,454	11,305	-8,998	-140,933				38,69															
21:20:16.947	COM8	2000-0-0 16:21:53.975	0,500	0,647	2,334	-1,465	9,033	-74,585	11,492	-8,575	-142,416				38,81															
21:20:16.950	COM3	2000-0-0 16:24:11.755	0,616	-0,553	2,030	30,518	47,974	51,208	5,164	-24,972	-97,740	3,875	72,433	31,550	41,15															
21:20:16.960	COM8	2000-0-0 16:21:53.995	0,450	0,684	2,330	-0,427	7,019	-72,205	11,700	-8,190	-143,839				38,81															
21:20:16.969	COM3	2000-0-0 16:24:11.775	0,733	-0,544	2,040	29,419	60,791	44,434	5,054	-23,912	-96,636	3,875	72,433	31,550	41,21															
21:20:16.984	COM8	2000-0-0 16:21:54.015	0,483	0,705	2,307	-0,732	0,427	-70,190	11,909	-7,916	-145,239				38,75															
21:20:16.989	COM3	2000-0-0 16:24:11.795	0,662	-0,626	2,015	22,522	73,242	41,321	4,922	-22,527	-95,658	3,875	72,433	31,550	41,08															
21:20:17.000	COM8	2000-0-0 16:21:54.035	0,489	0,737	2,351	2,014	-5,188	-67,505	12,156	-7,751	-146,613				38,75															
21:20:17.009	COM3	2000-0-0 16:24:11.815	0,693	-0,724	2,129	23,743	56,702	42,542	4,702	-21,297	-94,675	3,875	72,433	31,550	41,15															
21:20:17.024	COM8	2000-0-0 16:21:54.055	0,392	0,790	2,350	0,366	-6,226	-64,270	12,382	-7,657	-147,936				38,69															
21:20:17.040	COM8	2000-0-0 16:21:54.075	0,419	0,793	2,300	2,014	-4,578	-62,317	12,601	-7,537	-149,216				38,75															
21:20:17.045	COM3	2000-0-0 16:24:11.835	0,566	-0,660	2,156	17,151	71,045	42,908	4,482	-20,072	-93,724	3,875	72,433	31,550	41,11															
21:20:17.048	COM3	2000-0-0 16:24:11.855	0,558	-0,633	2,110	13,916	95,764	37,537	4,197	-18,408	-92,807	3,875	72,433	31,550	41,24															
21:20:17.072	COM8	2000-0-0 16:21:54.095	0,461	0,758	2,374	1,953	0,916	-62,378	12,854	-7,344	-150,469				38,75															
21:20:17.079	COM3	2000-0-0 16:24:11.875	0,716	-0,674	2,130	9,766	108,032	37,964	3,878	-16,331	-91,945	3,875	72,433	31,550	41,18															
21:20:17.082	COM8	2000-0-0 16:21:54.115	0,411	0,787	2,368	-0,061	9,460	-57,434	13,068	-7,015	-151,628				38,78															
21:20:17.110	COM3	2000-0-0 16:24:11.895	0,602	-0,798	2,308	8,911	83,496	43,335	3,549	-14,491	-91,066	3,875	72,433	31,550	41,15															
21:20:17.112	COM3	2000-0-0 16:24:11.915	0,610	-0,736	2,339	6,714	61,096	47,852	3,197	-13,228	-90,121	3,875	72,433	31,550	41,02															
21:20:17.115	COM8	2000-0-0 16:21:54.135	0,369	0,922	2,330	1,526	3,418	-57,556	13,277	-6,691	-152,726				38,72															
21:20:17.137	COM3	2000-0-0 16:24:11.935	0,511	-0,732	2,213	4,089	64,087	47,607	2,823	-12,074	-89,203	3,875	72,433	31,550	41,11															
21:20:17.138	COM8	2000-0-0 16:21:54.155	0,330	0,963	2,321	1,587	-6,226	-66,406	13,497	-6,487	-153,979				38,78															
21:20:17.140	COM8	2000-0-0 16:21:54.175	0,405	0,864	2,427	0,610	-16,052	-76,172	13,733	-6,422	-155,468				38,75															
21:20:17.148	COM3	2000-0-0 16:24:11.955	0,592	-0,752	2,206	5,005	65,918	48,157	2,461	-10,838	-88,270	3,875	72,433	31,550	41,08															
21:20:17.162	COM8	2000-0-0 16:21:54.195	0,205	0,820	2,365	-3,723	-14,404	-74,524	13,931	-6,394	-157,050				38,78															
21:20:17.175	COM3	2000-0-0 16:24:11.975	0,499	-0,795	2,298	6,714	60,181	51,086	2,153	-9,673	-87,330	3,875	72,433	31,550	41,08															
21:20:17.189	COM8	2000-0-0 16:21:54.215	0,270	0,780	2,322	1,404	-12,878	-75,195	14,145	-6,268	-158,560				38,75															
21:20:17.195	COM3	2000-0-0 16:24:11.995	0,576	-0,704	2,328	3,296	62,927	50,598	1,840	-8,547	-86,369	3,875	72,433	31,550	41,15															
21:20:17.208	COM3	2000-0-0 16:24:12.015	0,451	-0,758	2,330	-2,441	61,768	48,157	1,450	-7,361	-85,490	3,875	72,433	31,550	41,08															
21:20:17.209	COM8	2000-0-0 16:21:54.235	0,245	0,882	2,313	0,061	-18,921	-74,646	14,376	-6,262	-160,115				38,78															
21:20:17.222	COM8	2000-0-0 16:21:54.255	0,307	0,839	2,289	-2,136	-13,977	-71,045	14,579	-6,235	-161,625				38,75															
21:20:17.226	COM3	2000-0-0 16:24:12.035	0,395	-0,826	2,343	-3,906	46,448	49,622	1,005	-6,460	-84,600	3,875	72,433	31,550	41,15															
21:20:17.240	COM8	2000-0-0 16:21:54.275	0,285	0,834	2,344	-3,540	-17,334	-63,965	14,766	-6,306	-163,048				38,69															
21:20:17.260	COM8	2000-0-0 16:21:54.295	0,294	0,849	2,365	5,005	-14,221	-55,481	15,002	-6,323	-164,290				38,75															
21:20:17.269	COM3	2000-0-0 16:24:12.055	0,385	-0,725	2,250	-2,197	50,293	47,791	0,610	-5,587	-83,749	3,875	72,433	31,550	41,08															
21:20:17.270	COM3	2000-0-0 16:24:12.075	0,372	-0,692	2,295	-2,625	66,711	38,635	0,264	-4,455	-83,035	3,875	72,433	31,550	41,15															
21:20:17.284	COM8	2000-0-0 16:21:54.315	0,236	0,801	2,302	8,118	-7,141	-46,021	15,260	-6,202	-165,311				38,75															
21:20:17.293	COM3	2000-0-0 16:24:12.095	0,374	-0,772	2,349	-4,700	59,875	34,546	-0,082	-3,241	-82,474	3,875	72,433	31,550	41,02															
21:20:17.302	COM8	2000-0-0 16:21:54.335	0,223	0,906	2,283	6,775	-11,658	-44,861	15,551	-6,163	-166,223				38,75															
21:20:17.313	COM3	2000-0-0 16:24:12.115	0,249	-0,792	2,316	0,000	40,039	33,997	-0,368	-2,395	-81,958	3,875	72,433	31,550	41,05															
21:20:17.330	COM3	2000-0-0 16:24:12.135	0,414	-0,746	2,207	5,615	49,744	31,738	-0,549	-1,566	-81,464	3,875	72,433	31,550	41,08															
21:20:17.334	COM8	2000-0-0 16:21:54.355	0,396	0,905	2,250	5,920	-23,315	-48,584	15,853	-6,284	-167,261				38,75															
21:20:17.347	COM3	2000-0-0 16:24:12.155	0,277	-0,765	2,250	10,620	76,843	23,865	-0,588	-0,352	-81,118	3,875	72,433	31,550	41,05															
21:20:17.354	COM8	2000-0-0 16:21:54.375	0,249	0,858	2,331	0,610	-12,146	-42,786	16,062	-6,378	-168,250				38,59															
21:20:17.360	COM8	2000-0-0 16:21:54.395	0,218	0,881	2,272	4,456	-12,939	-37,720	16,254	-6,372	-169,080				38,59															
21:20:17.365	COM3	2000-0-0 16:24:12.175	0,370	-0,846	2,356	17,395	76,294	28,076	-0,522	1,203	-80,777	3,875	72,433	31,550	41,15															
21:20:17.385	COM8	2000-0-0 16:21:54.415	0,289	0,895	2,300	6,226	-23,987	-39,124	16,507	-6,526	-169,948				38,81															
21:20:17.392	COM3	2000-0-0 16:24:12.195	0,357	-0,774	2,346	21,179	47,363	42,053	-0,297	2,192	-80,250	3,875	72,433	31,550	41,15															
21:20:17.402	COM8	2000-0-0 16:21:54.435	0,261	0,825	2,243	4,517	-13,184	-37,476	16,721	-6,630	-170,804				38,59															
21:20:17.412	COM3	2000-0-0 16:24:12.215	0,353	-0,743	2,482	25,757	13,000	39,246	-0,022	2,406	-79,673	3,875	72,433	31,550	41,15															
21:20:17.422	COM8	2000-0-0 16:21:54.455	0,198	0,911	2,284	6,348	-2,686	-31,189	17,001	-6,581	-171,502				38,81															
21:20:17.430	COM3	2000-0-0 16:24:12.235	0,428	-0,767	2,464	22,644	1,160	31,006	0,214	2,433	-79,178	3,875	72,433	31,550	41,15															
21:20:17.457	COM3	2000-0-0 16:24:12.255	0,263	-0,787	2,466	16,296	-5,432	25,879	0,385	2,225	-78,794	3,875	72,433	31,550	41,05															
21:20:17.461	COM8	2000-0-0 16:21:54.475	0,219	0,909	2,275	8,789	5,127	-25,146	17,254	-6,394	-172,040				38,78															
21:20:17.461	COM8	2000-0-0 16:21:54.495	0,132	0,924	2,209	6,653	13,062	-21,362	17,485	-6,081	-172,436				38,72															
21:20:17.498	COM3	2000-0-0 16:24:12.275	0,307	-0,858	2,366	8,789	-14,221	22,461	0,374	1,906	-78,475	3,875	72,433	31,550	41,11															
21:20:17.499	COM3	2000-0-0 16:24:12.295	0,372	-0,832	2,298	6,348	-5,493	17,151	0,286	1,593	-78,250	3,875	72,433	31,550	41,11															
21:20:17.503	COM8	2000-0-0 16:21:54.515	0,211	0,977	2,204	8,606	21,179	-20,203	17,759	-5,647	-172,744				38,78															
21:20:17.504	COM8	2000-0-0 16:21:54.535	0,247	0,922	2,246	4,211	38,208	-13,428	17,935	-4,955	-172,886				38,81															
21:20:17.514	COM3	2000-0-0 16:24:12.315	0,421	-0,825	2,397	4,639	7,507	9,766	0,176	1,588	-78,173	3,875	72,433	31,550	41,11															
21:20:17.520	COM8	2000-0-0 16:21:54.555	0,109	0,899	2,283	-2,625	53,589	-0,488	17,963	-3,994	-172,700				38,72															
