Time	COM	Chip Time()	Acceleration X(g)	Acceleration Y(g)	Acceleration Z(g)	Angular velocity X(/s)	Angular velocity Y(/s)	Angular velocity Z(/s)	Angle X()	Angle Y()	Angle Z()	Magnetic field X(?t)	Magnetic field Y(?t)	Magnetic field Z(?t)	Temperature(?)	Pressure(Pa)	Height(m)	Longitude()	Latitude()	GPS ground speed(km)	GPS course()	GPS height(m)	Number of satellites()	Position location()	Horizontal position()	Vertical position()	Quaternions 0()	Quaternions 1()	Quaternions 2()	Quaternions 3()
02:54:18.941	COM8_115200	2000-0-0 4:50:10.310	0,204	0,974	1,809	-4,272	4,639	-0,671	29,575	-9,465	-156,731	-48,158	62,258	41,300	37,30															
02:54:18.948	COM3_115200	2000-0-0 4:45:36.825	0,275	-0,949	2,017	2,197	-1,160	-0,916	-27,301	-8,855	-36,760	11,400	67,658	-52,142	39,79															
02:54:18.948	COM8_115200	2000-0-0 4:50:10.330	0,204	0,969	1,807	-3,479	3,967	-0,366	29,476	-9,338	-156,687	-48,158	62,258	41,300	37,55															
02:54:18.964	COM3_115200	2000-0-0 4:45:36.845	0,274	-0,950	2,015	4,089	-1,953	-0,366	-27,213	-8,860	-36,749	11,400	67,658	-52,142	39,73															
02:54:18.980	COM3_115200	2000-0-0 4:45:36.865	0,292	-0,925	2,027	4,272	-3,540	0,000	-27,109	-8,899	-36,716	11,400	67,658	-52,142	39,79															
02:54:18.995	COM8_115200	2000-0-0 4:50:10.350	0,218	0,966	1,813	-2,747	1,953	0,244	29,399	-9,245	-156,654	-48,158	62,258	41,300	37,33															
02:54:18.995	COM8_115200	2000-0-0 4:50:10.370	0,215	0,972	1,816	-2,258	1,099	0,610	29,333	-9,179	-156,621	-48,158	62,258	41,300	37,39															
02:54:18.995	COM3_115200	2000-0-0 4:45:36.885	0,274	-0,948	2,025	3,357	-3,784	-0,793	-27,021	-8,943	-36,694	11,400	67,658	-52,142	39,85															
02:54:19.042	COM8_115200	2000-0-0 4:50:10.390	0,206	0,968	1,824	-2,380	0,610	0,916	29,273	-9,135	-156,594	-48,158	62,258	41,300	37,42															
02:54:19.042	COM8_115200	2000-0-0 4:50:10.410	0,207	0,962	1,827	-4,517	0,000	0,793	29,180	-9,097	-156,566	-48,158	62,258	41,300	37,30															
02:54:19.042	COM3_115200	2000-0-0 4:45:36.905	0,277	-0,946	2,027	5,249	-4,211	0,366	-26,911	-8,992	-36,656	11,400	67,658	-52,142	39,79															
02:54:19.073	COM8_115200	2000-0-0 4:50:10.430	0,218	0,964	1,824	-2,930	0,671	1,160	29,092	-9,064	-156,539	-48,158	62,258	41,300	37,42															
02:54:19.073	COM3_115200	2000-0-0 4:45:36.925	0,289	-0,935	2,032	5,676	-4,883	0,183	-26,785	-9,053	-36,612	11,400	67,658	-52,142	39,70															
02:54:19.073	COM3_115200	2000-0-0 4:45:36.945	0,287	-0,948	2,049	4,517	-6,104	-1,038	-26,669	-9,130	-36,568	11,400	67,658	-52,142	39,76															
02:54:19.073	COM8_115200	2000-0-0 4:50:10.450	0,201	0,970	1,838	-3,113	-0,427	1,831	29,015	-9,036	-156,506	-48,158	62,258	41,300	37,27															
02:54:19.073	COM3_115200	2000-0-0 4:45:36.965	0,276	-0,951	2,046	5,432	-7,019	-0,183	-26,559	-9,223	-36,519	11,400	67,658	-52,142	39,85															
02:54:19.089	COM8_115200	2000-0-0 4:50:10.470	0,232	0,967	1,840	-2,930	0,488	1,770	28,932	-9,020	-156,467	-48,158	62,258	41,300	37,36															
02:54:19.105	COM3_115200	2000-0-0 4:45:36.985	0,300	-0,945	2,049	4,272	-7,751	-1,343	-26,455	-9,349	-36,453	11,400	67,658	-52,142	39,82															
02:54:19.120	COM3_115200	2000-0-0 4:45:37.005	0,274	-0,957	2,037	3,052	-6,287	-1,465	-26,378	-9,454	-36,425	11,400	67,658	-52,142	39,73															
02:54:19.120	COM8_115200	2000-0-0 4:50:10.490	0,212	0,976	1,839	-1,404	2,197	1,770	28,878	-8,965	-156,412	-48,158	62,258	41,300	37,30															
02:54:19.136	COM8_115200	2000-0-0 4:50:10.510	0,231	0,978	1,847	-0,854	2,563	1,709	28,839	-8,910	-156,352	-48,158	62,258	41,300	37,42															
02:54:19.136	COM3_115200	2000-0-0 4:45:37.025	0,281	-0,942	2,036	3,296	-5,920	-1,343	-26,296	-9,553	-36,387	11,400	67,658	-52,142	39,63															
02:54:19.167	COM3_115200	2000-0-0 4:45:37.045	0,288	-0,950	2,051	3,357	-5,188	-1,038	-26,224	-9,624	-36,359	11,400	67,658	-52,142	39,76															
02:54:19.167	COM8_115200	2000-0-0 4:50:10.530	0,207	0,979	1,852	-1,404	2,625	0,977	28,801	-8,833	-156,297	-48,158	62,258	41,300	37,33															
02:54:19.183	COM8_115200	2000-0-0 4:50:10.550	0,235	0,986	1,850	-2,441	0,793	1,038	28,740	-8,789	-156,264	-48,158	62,258	41,300	37,33															
02:54:19.183	COM3_115200	2000-0-0 4:45:37.065	0,270	-0,959	2,038	3,479	-5,066	-1,038	-26,153	-9,684	-36,337	11,400	67,658	-52,142	39,76															
02:54:19.198	COM8_115200	2000-0-0 4:50:10.570	0,226	0,987	1,849	-2,075	0,183	0,732	28,685	-8,751	-156,231	-48,158	62,258	41,300	37,39															
02:54:19.198	COM3_115200	2000-0-0 4:45:37.085	0,284	-0,950	2,046	3,662	-3,845	0,000	-26,065	-9,745	-36,293	11,400	67,658	-52,142	39,85															
02:54:19.214	COM8_115200	2000-0-0 4:50:10.590	0,223	0,987	1,862	-2,502	-1,831	0,122	28,630	-8,740	-156,226	-48,158	62,258	41,300	37,33															
02:54:19.229	COM3_115200	2000-0-0 4:45:37.105	0,278	-0,960	2,050	4,089	-3,296	-0,061	-25,988	-9,778	-36,266	11,400	67,658	-52,142	39,82															
02:54:19.229	COM8_115200	2000-0-0 4:50:10.610	0,227	0,972	1,848	-2,625	-2,380	-0,610	28,570	-8,745	-156,242	-48,158	62,258	41,300	37,39															
02:54:19.245	COM3_115200	2000-0-0 4:45:37.125	0,283	-0,945	2,051	3,235	-2,380	-0,305	-25,900	-9,794	-36,233	11,400	67,658	-52,142	39,79															
02:54:19.261	COM8_115200	2000-0-0 4:50:10.630	0,221	0,971	1,847	-1,221	-1,343	-0,732	28,531	-8,734	-156,264	-48,158	62,258	41,300	37,42															
02:54:19.261	COM3_115200	2000-0-0 4:45:37.145	0,276	-0,953	2,047	2,075	0,000	-0,366	-25,845	-9,783	-36,233	11,400	67,658	-52,142	39,70															
02:54:19.276	COM8_115200	2000-0-0 4:50:10.650	0,218	0,971	1,850	-1,282	-1,160	-0,183	28,504	-8,718	-156,275	-48,158	62,258	41,300	37,49															
02:54:19.292	COM3_115200	2000-0-0 4:45:37.165	0,278	-0,952	2,067	2,441	-1,526	-0,793	-25,785	-9,767	-36,238	11,400	67,658	-52,142	39,79															
02:54:19.292	COM8_115200	2000-0-0 4:50:10.670	0,229	0,964	1,851	-1,038	-1,099	-0,427	28,466	-8,707	-156,286	-48,158	62,258	41,300	37,39															
02:54:19.292	COM3_115200	2000-0-0 4:45:37.185	0,295	-0,943	2,052	1,648	-0,732	-0,854	-25,730	-9,772	-36,233	11,400	67,658	-52,142	39,70															
02:54:19.308	COM8_115200	2000-0-0 4:50:10.690	0,214	0,980	1,852	-0,366	-0,610	-1,099	28,455	-8,674	-156,297	-48,158	62,258	41,300	37,33															
02:54:19.323	COM3_115200	2000-0-0 4:45:37.205	0,278	-0,950	2,054	0,793	-0,366	-1,587	-25,697	-9,761	-36,255	11,400	67,658	-52,142	39,76															
02:54:19.339	COM8_115200	2000-0-0 4:50:10.710	0,217	0,973	1,849	-0,549	-1,160	-0,549	28,438	-8,652	-156,313	-48,158	62,258	41,300	37,33															
02:54:19.339	COM3_115200	2000-0-0 4:45:37.225	0,284	-0,947	2,055	1,770	-1,709	-0,732	-25,659	-9,761	-36,260	11,400	67,658	-52,142	39,85															
02:54:19.355	COM8_115200	2000-0-0 4:50:10.730	0,212	0,972	1,851	-1,038	-1,831	-0,793	28,416	-8,641	-156,335	-48,158	62,258	41,300	37,49															
02:54:19.370	COM3_115200	2000-0-0 4:45:37.245	0,291	-0,947	2,066	2,441	-1,587	-0,854	-25,609	-9,761	-36,255	11,400	67,658	-52,142	39,82															
02:54:19.370	COM8_115200	2000-0-0 4:50:10.750	0,220	0,974	1,851	-1,709	-2,075	-0,732	28,383	-8,641	-156,363	-48,158	62,258	41,300	37,30															
02:54:19.401	COM3_115200	2000-0-0 4:45:37.265	0,290	-0,927	2,055	1,343	-1,953	-1,160	-25,554	-9,772	-36,249	11,400	67,658	-52,142	39,76															
02:54:19.401	COM3_115200	2000-0-0 4:45:37.285	0,282	-0,939	2,062	1,221	-1,709	-0,366	-25,521	-9,783	-36,249	11,400	67,658	-52,142	39,79															
02:54:19.401	COM8_115200	2000-0-0 4:50:10.770	0,203	0,961	1,848	-0,671	-0,977	-0,610	28,361	-8,624	-156,385	-48,158	62,258	41,300	37,42															
02:54:19.448	COM8_115200	2000-0-0 4:50:10.790	0,212	0,967	1,851	-0,244	-0,549	-0,366	28,350	-8,602	-156,390	-48,158	62,258	41,300	37,39															
02:54:19.448	COM8_115200	2000-0-0 4:50:10.810	0,216	0,979	1,854	0,000	-0,549	0,061	28,339	-8,575	-156,390	-48,158	62,258	41,300	37,61															
02:54:19.448	COM3_115200	2000-0-0 4:45:37.305	0,288	-0,938	2,057	1,038	-1,709	-1,282	-25,488	-9,789	-36,249	11,400	67,658	-52,142	39,92															
02:54:19.448	COM3_115200	2000-0-0 4:45:37.325	0,296	-0,940	2,061	0,671	-1,831	-1,038	-25,455	-9,805	-36,249	11,400	67,658	-52,142	39,82															
02:54:19.480	COM8_115200	2000-0-0 4:50:10.830	0,220	0,970	1,854	0,061	-0,488	0,427	28,328	-8,553	-156,385	-48,158	62,258	41,300	37,42															
02:54:19.480	COM8_115200	2000-0-0 4:50:10.850	0,211	0,968	1,853	0,427	0,549	0,305	28,323	-8,525	-156,363	-48,158	62,258	41,300	37,33															
02:54:19.480	COM3_115200	2000-0-0 4:45:37.345	0,290	-0,944	2,057	0,549	-3,235	-1,282	-25,433	-9,827	-36,249	11,400	67,658	-52,142	39,88															
02:54:19.480	COM3_115200	2000-0-0 4:45:37.365	0,288	-0,933	2,055	0,244	-1,709	-0,549	-25,417	-9,844	-36,244	11,400	67,658	-52,142	39,82															
02:54:19.507	COM8_115200	2000-0-0 4:50:10.870	0,208	0,962	1,851	0,183	-0,122	0,305	28,323	-8,492	-156,352	-48,158	62,258	41,300	37,33															
02:54:19.525	COM3_115200	2000-0-0 4:45:37.385	0,283	-0,924	2,043	0,488	-0,549	-0,366	-25,395	-9,827	-36,238	11,400	67,658	-52,142	39,79															
02:54:19.526	COM3_115200	2000-0-0 4:45:37.405	0,284	-0,912	2,059	1,587	-2,808	0,549	-25,362	-9,838	-36,216	11,400	67,658	-52,142	39,76															
02:54:19.537	COM8_115200	2000-0-0 4:50:10.890	0,207	0,949	1,858	-0,854	-1,953	0,061	28,306	-8,481	-156,363	-48,158	62,258	41,300	37,30															
02:54:19.546	COM3_115200	2000-0-0 4:45:37.425	0,277	-0,911	2,042	0,427	-0,183	0,427	-25,329	-9,822	-36,194	11,400	67,658	-52,142	39,79															
02:54:19.549	COM8_115200	2000-0-0 4:50:10.910	0,209	0,947	1,860	-0,671	-2,747	0,854	28,284	-8,503	-156,368	-48,158	62,258	41,300	37,33															
02:54:19.549	COM8_115200	2000-0-0 4:50:10.930	0,208	0,963	1,863	-1,770	-4,700	0,854	28,251	-8,542	-156,385	-48,158	62,258	41,300	37,36															
02:54:19.565	COM3_115200	2000-0-0 4:45:37.445	0,270	-0,937	2,028	0,977	3,052	-0,183	-25,302	-9,761	-36,205	11,400	67,658	-52,142	39,85															
02:54:19.581	COM8_115200	2000-0-0 4:50:10.950	0,234	0,977	1,859	-0,122	-3,479	1,221	28,224	-8,591	-156,396	-48,158	62,258	41,300	37,39															
02:54:19.581	COM3_115200	2000-0-0 4:45:37.465	0,300	-0,956	2,046	0,977	4,028	-2,075	-25,269	-9,668	-36,260	11,400	67,658	-52,142	39,76															
02:54:19.596	COM3_115200	2000-0-0 4:45:37.485	0,313	-0,956	2,056	0,000	5,310	-2,808	-25,230	-9,586	-36,332	11,400	67,658	-52,142	39,85															
02:54:19.596	COM8_115200	2000-0-0 4:50:10.970	0,233	0,979	1,852	0,549	-5,249	2,808	28,224	-8,657	-156,396	-48,158	62,258	41,300	37,30															
02:54:19.612	COM8_115200	2000-0-0 4:50:10.990	0,230	0,999	1,844	2,197	-5,493	2,869	28,257	-8,751	-156,390	-48,158	62,258	41,300	37,49															
02:54:19.612	COM3_115200	2000-0-0 4:45:37.505	0,287	-0,985	2,058	1,221	3,540	-3,296	-25,203	-9,503	-36,436	11,400	67,658	-52,142	39,88															
02:54:19.643	COM8_115200	2000-0-0 4:50:11.010	0,222	0,984	1,842	0,854	-7,080	1,587	28,279	-8,855	-156,412	-48,158	62,258	41,300	37,42															
02:54:19.659	COM3_115200	2000-0-0 4:45:37.525	0,303	-0,971	2,071	1,831	2,380	-3,235	-25,148	-9,448	-36,513	11,400	67,658	-52,142	39,66															
02:54:19.659	COM8_115200	2000-0-0 4:50:11.030	0,222	1,000	1,847	0,000	-7,813	0,854	28,290	-8,959	-156,456	-48,158	62,258	41,300	37,36															
02:54:19.674	COM3_115200	2000-0-0 4:45:37.545	0,286	-0,966	2,067	2,258	0,244	-2,136	-25,087	-9,421	-36,573	11,400	67,658	-52,142	39,73															
02:54:19.674	COM3_115200	2000-0-0 4:45:37.565	0,297	-0,960	2,076	2,258	-1,099	-1,099	-25,027	-9,437	-36,595	11,400	67,658	-52,142	39,85															
02:54:19.674	COM8_115200	2000-0-0 4:50:11.050	0,220	1,005	1,841	-0,610	-8,057	0,671	28,290	-9,075	-156,522	-48,158	62,258	41,300	37,33															
02:54:19.706	COM8_115200	2000-0-0 4:50:11.070	0,224	0,979	1,845	0,244	-6,775	-0,549	28,295	-9,168	-156,588	-48,158	62,258	41,300	37,36															
02:54:19.706	COM3_115200	2000-0-0 4:45:37.585	0,292	-0,944	2,080	2,319	-0,305	-0,305	-24,977	-9,437	-36,595	11,400	67,658	-52,142	39,79															
02:54:19.721	COM8_115200	2000-0-0 4:50:11.090	0,215	0,975	1,835	1,648	-4,395	-1,648	28,328	-9,207	-156,654	-48,158	62,258	41,300	37,33															
02:54:19.737	COM3_115200	2000-0-0 4:45:37.605	0,292	-0,934	2,082	1,099	-0,366	-0,732	-24,939	-9,415	-36,612	11,400	67,658	-52,142	39,79															
02:54:19.737	COM3_115200	2000-0-0 4:45:37.625	0,310	-0,927	2,084	-0,488	-2,441	-0,122	-24,933	-9,426	-36,601	11,400	67,658	-52,142	39,79															
02:54:19.737	COM8_115200	2000-0-0 4:50:11.110	0,211	0,972	1,831	2,197	-2,136	-1,770	28,367	-9,207	-156,709	-48,158	62,258	41,300	37,30															
02:54:19.784	COM8_115200	2000-0-0 4:50:11.130	0,192	0,974	1,826	2,869	1,221	-1,709	28,422	-9,152	-156,731	-48,158	62,258	41,300	37,39															
02:54:19.784	COM8_115200	2000-0-0 4:50:11.150	0,202	0,975	1,820	1,587	3,540	-1,099	28,460	-9,053	-156,725	-48,158	62,258	41,300	37,42															
02:54:19.784	COM3_115200	2000-0-0 4:45:37.645	0,301	-0,943	2,088	-2,808	-2,197	0,122	-24,972	-9,443	-36,579	11,400	67,658	-52,142	39,76															
02:54:19.800	COM3_115200	2000-0-0 4:45:37.665	0,286	-0,946	2,082	-2,319	-2,686	1,404	-25,021	-9,448	-36,546	11,400	67,658	-52,142	39,85															
02:54:19.815	COM8_115200	2000-0-0 4:50:11.170	0,215	0,980	1,833	1,831	7,080	0,000	28,488	-8,915	-156,676	-48,158	62,258	41,300	37,36															
02:54:19.816	COM3_115200	2000-0-0 4:45:37.685	0,320	-0,925	2,081	-3,052	-5,554	0,427	-25,071	-9,503	-36,480	11,400	67,658	-52,142	39,76															
02:54:19.816	COM8_115200	2000-0-0 4:50:11.190	0,224	0,982	1,835	2,014	10,559	1,343	28,499	-8,734	-156,566	-48,158	62,258	41,300	37,52															
02:54:19.816	COM3_115200	2000-0-0 4:45:37.705	0,307	-0,938	2,062	-4,395	-6,409	-0,183	-25,148	-9,580	-36,425	11,400	67,658	-52,142	39,76															
02:54:19.832	COM8_115200	2000-0-0 4:50:11.210	0,225	0,996	1,836	1,831	12,512	2,747	28,510	-8,503	-156,401	-48,158	62,258	41,300	37,36															
02:54:19.832	COM3_115200	2000-0-0 4:45:37.725	0,321	-0,934	2,063	-4,089	-8,179	-0,732	-25,230	-9,712	-36,354	11,400	67,658	-52,142	39,70															
02:54:19.848	COM8_115200	2000-0-0 4:50:11.230	0,202	0,987	1,854	-0,183	13,367	1,953	28,499	-8,262	-156,231	-48,158	62,258	41,300	37,39															
02:54:19.863	COM3_115200	2000-0-0 4:45:37.745	0,302	-0,943	2,044	-6,165	-6,042	-1,526	-25,340	-9,805	-36,321	11,400	67,658	-52,142	39,76															
02:54:19.879	COM8_115200	2000-0-0 4:50:11.250	0,205	0,985	1,860	-2,441	11,047	2,319	28,438	-8,047	-156,072	-48,158	62,258	41,300	37,42															
02:54:19.879	COM3_115200	2000-0-0 4:45:37.765	0,298	-0,940	2,048	-4,639	-7,935	-1,831	-25,433	-9,926	-36,288	11,400	67,658	-52,142	39,76															
02:54:19.895	COM3_115200	2000-0-0 4:45:37.785	0,318	-0,936	2,028	-4,944	-5,737	-1,709	-25,521	-10,042	-36,260	11,400	67,658	-52,142	39,85															
02:54:19.895	COM8_115200	2000-0-0 4:50:11.270	0,208	0,977	1,857	-2,869	8,423	2,319	28,361	-7,877	-155,940	-48,158	62,258	41,300	37,30															
02:54:19.910	COM8_115200	2000-0-0 4:50:11.290	0,206	0,981	1,861	-3,174	6,104	2,075	28,279	-7,751	-155,825	-48,158	62,258	41,300	37,36															
02:54:19.926	COM3_115200	2000-0-0 4:45:37.805	0,312	-0,935	2,030	-5,127	-2,991	-1,892	-25,609	-10,102	-36,249	11,400	67,658	-52,142	39,79															
02:54:19.926	COM8_115200	2000-0-0 4:50:11.310	0,207	0,985	1,872	-3,113	3,845	2,380	28,202	-7,668	-155,742	-48,158	62,258	41,300	37,42															
02:54:19.941	COM3_115200	2000-0-0 4:45:37.825	0,312	-0,964	2,028	-5,127	-2,075	-1,160	-25,708	-10,124	-36,266	11,400	67,658	-52,142	39,79															
02:54:19.957	COM8_115200	2000-0-0 4:50:11.330	0,201	0,976	1,867	-2,502	1,282	1,953	28,136	-7,625	-155,676	-48,158	62,258	41,300	37,27															
02:54:19.957	COM3_115200	2000-0-0 4:45:37.845	0,301	-0,936	2,020	-4,700	-0,122	0,366	-25,790	-10,096	-36,266	11,400	67,658	-52,142	39,70															
02:54:19.973	COM8_115200	2000-0-0 4:50:11.350	0,192	0,975	1,861	-0,671	-3,113	1,770	28,103	-7,646	-155,660	-48,158	62,258	41,300	37,30															
02:54:19.973	COM3_115200	2000-0-0 4:45:37.865	0,318	-0,927	2,031	-3,967	2,991	1,160	-25,856	-10,052	-36,260	11,400	67,658	-52,142	39,73															
02:54:19.988	COM8_115200	2000-0-0 4:50:11.370	0,209	0,962	1,857	-0,549	-3,174	0,793	28,087	-7,696	-155,665	-48,158	62,258	41,300	37,39															
02:54:20.004	COM3_115200	2000-0-0 4:45:37.885	0,296	-0,950	2,010	-4,272	5,066	1,038	-25,933	-9,915	-36,282	11,400	67,658	-52,142	39,70															
02:54:20.020	COM3_115200	2000-0-0 4:45:37.905	0,324	-0,935	2,029	-2,686	5,493	1,831	-25,972	-9,789	-36,293	11,400	67,658	-52,142	39,79															
02:54:20.035	COM8_115200	2000-0-0 4:50:11.390	0,203	0,962	1,847	1,221	-2,991	0,549	28,098	-7,723	-155,676	-48,158	62,258	41,300	37,42															
02:54:20.035	COM8_115200	2000-0-0 4:50:11.410	0,214	0,989	1,852	1,587	-5,188	1,526	28,125	-7,784	-155,693	-48,158	62,258	41,300	37,39															
02:54:20.035	COM3_115200	2000-0-0 4:45:37.925	0,311	-0,948	2,025	-3,357	7,141	0,488	-26,021	-9,624	-36,337	11,400	67,658	-52,142	39,73															
02:54:20.051	COM3_115200	2000-0-0 4:45:37.945	0,328	-0,933	2,022	-1,770	5,249	1,038	-26,049	-9,503	-36,365	11,400	67,658	-52,142	39,73															
02:54:20.051	COM8_115200	2000-0-0 4:50:11.430	0,224	0,967	1,841	2,747	-5,127	1,709	28,158	-7,866	-155,704	-48,158	62,258	41,300	37,27															
02:54:20.066	COM8_115200	2000-0-0 4:50:11.450	0,193	0,982	1,829	3,418	-5,493	2,380	28,224	-7,949	-155,709	-48,158	62,258	41,300	37,39															
02:54:20.082	COM3_115200	2000-0-0 4:45:37.965	0,279	-0,956	2,016	-1,648	5,127	1,038	-26,071	-9,371	-36,398	11,400	67,658	-52,142	39,76															
02:54:20.113	COM8_115200	2000-0-0 4:50:11.470	0,215	0,981	1,824	2,563	-6,775	2,808	28,279	-8,064	-155,720	-48,158	62,258	41,300	37,42															
02:54:20.113	COM8_115200	2000-0-0 4:50:11.490	0,221	0,975	1,816	3,357	-6,042	2,686	28,334	-8,168	-155,731	-48,158	62,258	41,300	37,33															
02:54:20.113	COM3_115200	2000-0-0 4:45:37.985	0,301	-0,955	2,029	2,441	2,258	2,502	-26,038	-9,283	-36,387	11,400	67,658	-52,142	39,82															
02:54:20.160	COM8_115200	2000-0-0 4:50:11.510	0,222	0,974	1,812	3,723	-5,432	1,709	28,400	-8,262	-155,742	-48,158	62,258	41,300	37,36															
02:54:20.160	COM8_115200	2000-0-0 4:50:11.530	0,208	0,971	1,812	1,770	-5,554	0,854	28,449	-8,339	-155,770	-48,158	62,258	41,300	37,49															
02:54:20.160	COM3_115200	2000-0-0 4:45:38.005	0,314	-0,948	2,030	1,465	5,981	2,258	-25,994	-9,157	-36,381	11,400	67,658	-52,142	39,70															
02:54:20.176	COM3_115200	2000-0-0 4:45:38.025	0,312	-0,940	2,042	2,441	1,343	1,953	-25,939	-9,058	-36,370	11,400	67,658	-52,142	39,82															
02:54:20.191	COM3_115200	2000-0-0 4:45:38.045	0,297	-0,945	2,043	1,221	0,610	1,831	-25,895	-9,003	-36,343	11,400	67,658	-52,142	39,82															
02:54:20.191	COM3_115200	2000-0-0 4:45:38.065	0,293	-0,945	2,033	1,831	-0,793	3,235	-25,851	-8,976	-36,293	11,400	67,658	-52,142	39,82															
02:54:20.191	COM8_115200	2000-0-0 4:50:11.550	0,228	0,970	1,807	2,686	-2,991	-0,061	28,493	-8,388	-155,797	-48,158	62,258	41,300	37,49															
02:54:20.191	COM8_115200	2000-0-0 4:50:11.570	0,215	0,985	1,806	1,770	-1,648	-0,671	28,548	-8,377	-155,819	-48,158	62,258	41,300	37,27															
02:54:20.207	COM3_115200	2000-0-0 4:45:38.085	0,295	-0,951	2,046	1,282	0,000	2,319	-25,812	-8,943	-36,244	11,400	67,658	-52,142	39,76															
02:54:20.207	COM8_115200	2000-0-0 4:50:11.590	0,240	0,965	1,807	1,465	2,747	-1,160	28,570	-8,333	-155,830	-48,158	62,258	41,300	37,27															
02:54:20.223	COM3_115200	2000-0-0 4:45:38.105	0,294	-0,948	2,049	1,160	-2,991	2,502	-25,790	-8,937	-36,183	11,400	67,658	-52,142	39,73															
02:54:20.238	COM8_115200	2000-0-0 4:50:11.610	0,222	0,968	1,791	1,648	6,592	0,671	28,586	-8,207	-155,775	-48,158	62,258	41,300	37,33															
02:54:20.238	COM3_115200	2000-0-0 4:45:38.125	0,293	-0,958	2,047	0,183	-3,357	2,502	-25,779	-8,965	-36,107	11,400	67,658	-52,142	39,82															
02:54:20.254	COM8_115200	2000-0-0 4:50:11.630	0,230	0,977	1,804	2,441	7,568	2,014	28,619	-8,075	-155,676	-48,158	62,258	41,300	37,39															
02:54:20.254	COM3_115200	2000-0-0 4:45:38.145	0,284	-0,967	2,043	1,526	-5,127	2,258	-25,763	-9,003	-36,019	11,400	67,658	-52,142	39,88															
02:54:20.270	COM3_115200	2000-0-0 4:45:38.165	0,301	-0,955	2,035	1,099	-6,409	0,732	-25,746	-9,086	-35,931	11,400	67,658	-52,142	39,76															
02:54:20.270	COM8_115200	2000-0-0 4:50:11.650	0,252	0,978	1,814	2,014	8,850	2,380	28,647	-7,932	-155,550	-48,158	62,258	41,300	37,36															
02:54:20.301	COM8_115200	2000-0-0 4:50:11.670	0,250	0,977	1,813	2,625	9,521	2,808	28,669	-7,767	-155,407	-48,158	62,258	41,300	37,39															
02:54:20.301	COM3_115200	2000-0-0 4:45:38.185	0,304	-0,956	2,027	0,183	-7,446	0,000	-25,741	-9,185	-35,870	11,400	67,658	-52,142	39,82															
02:54:20.316	COM8_115200	2000-0-0 4:50:11.690	0,241	0,983	1,827	1,831	8,240	3,174	28,696	-7,630	-155,264	-48,158	62,258	41,300	37,23															
02:54:20.316	COM3_115200	2000-0-0 4:45:38.205	0,275	-0,940	2,029	-0,183	-8,606	-0,244	-25,741	-9,316	-35,788	11,400	67,658	-52,142	39,73															
02:54:20.332	COM8_115200	2000-0-0 4:50:11.710	0,262	0,983	1,831	0,854	7,080	2,625	28,691	-7,515	-155,138	-48,158	62,258	41,300	37,23															
02:54:20.332	COM3_115200	2000-0-0 4:45:38.225	0,272	-0,959	2,009	0,977	-6,836	0,000	-25,735	-9,437	-35,711	11,400	67,658	-52,142	39,70															
02:54:20.348	COM8_115200	2000-0-0 4:50:11.730	0,242	0,970	1,840	1,465	4,578	2,625	28,691	-7,421	-155,039	-48,158	62,258	41,300	37,46															
02:54:20.363	COM3_115200	2000-0-0 4:45:38.245	0,270	-0,947	2,000	0,916	-3,601	-0,854	-25,714	-9,498	-35,678	11,400	67,658	-52,142	39,79															
02:54:20.379	COM8_115200	2000-0-0 4:50:11.750	0,248	0,991	1,852	0,916	-1,465	3,052	28,718	-7,432	-154,979	-48,158	62,258	41,300	37,33															
02:54:20.379	COM3_115200	2000-0-0 4:45:38.265	0,287	-0,944	2,013	1,709	-3,418	0,061	-25,681	-9,536	-35,656	11,400	67,658	-52,142	39,88															
02:54:20.395	COM3_115200	2000-0-0 4:45:38.285	0,274	-0,944	2,007	0,977	-0,427	-0,549	-25,653	-9,542	-35,651	11,400	67,658	-52,142	39,82															
02:54:20.395	COM8_115200	2000-0-0 4:50:11.770	0,254	0,981	1,854	-1,953	-9,094	4,211	28,691	-7,564	-154,973	-48,158	62,258	41,300	37,36															
02:54:20.410	COM3_115200	2000-0-0 4:45:38.305	0,290	-0,951	2,010	2,808	1,404	-0,488	-25,604	-9,503	-35,662	11,400	67,658	-52,142	39,76															
02:54:20.426	COM8_115200	2000-0-0 4:50:11.790	0,195	0,982	1,852	-3,235	-25,146	7,874	28,641	-7,916	-155,039	-48,158	62,258	41,300	37,49															
02:54:20.441	COM8_115200	2000-0-0 4:50:11.810	0,235	0,938	1,845	-4,822	-37,048	13,672	28,537	-8,597	-155,160	-48,158	62,258	41,300	37,30															
02:54:20.441	COM3_115200	2000-0-0 4:45:38.325	0,340	-0,962	2,014	3,235	-1,160	-0,122	-25,538	-9,481	-35,667	11,400	67,658	-52,142	39,73															
02:54:20.457	COM3_115200	2000-0-0 4:45:38.345	0,309	-0,959	2,041	3,113	3,540	0,854	-25,444	-9,426	-35,684	11,400	67,658	-52,142	39,92															
02:54:20.457	COM8_115200	2000-0-0 4:50:11.830	0,238	0,929	1,832	5,310	-34,851	13,245	28,575	-9,327	-155,259	-48,158	62,258	41,300	37,42															
02:54:20.473	COM8_115200	2000-0-0 4:50:11.850	0,210	0,948	1,855	9,521	-30,640	8,057	28,729	-9,915	-155,380	-48,158	62,258	41,300	37,30															
02:54:20.473	COM3_115200	2000-0-0 4:45:38.365	0,315	-0,992	2,047	2,869	3,845	0,122	-25,389	-9,333	-35,717	11,400	67,658	-52,142	39,79															
02:54:20.504	COM8_115200	2000-0-0 4:50:11.870	0,250	0,954	1,847	5,920	-19,714	7,019	28,889	-10,388	-155,495	-48,158	62,258	41,300	37,36															
02:54:20.519	COM3_115200	2000-0-0 4:45:38.385	0,349	-0,980	2,071	1,526	3,845	2,808	-25,356	-9,229	-35,700	11,400	67,658	-52,142	39,70															
02:54:20.519	COM3_115200	2000-0-0 4:45:38.405	0,319	-0,959	2,083	-4,822	9,277	3,906	-25,400	-9,020	-35,717	11,400	67,658	-52,142	39,76															
02:54:20.556	COM8_115200	2000-0-0 4:50:11.890	0,201	0,949	1,844	7,263	-13,611	8,972	29,004	-10,662	-155,490	-48,158	62,258	41,300	37,33															
02:54:20.557	COM8_115200	2000-0-0 4:50:11.910	0,252	0,931	1,832	4,944	-9,949	11,230	29,081	-10,926	-155,429	-48,158	62,258	41,300	37,30															
02:54:20.558	COM3_115200	2000-0-0 4:45:38.425	0,296	-0,931	2,072	-4,089	7,385	5,188	-25,477	-8,844	-35,706	11,400	67,658	-52,142	39,92															
02:54:20.574	COM3_115200	2000-0-0 4:45:38.445	0,315	-0,916	2,068	-4,700	10,315	5,310	-25,565	-8,597	-35,706	11,400	67,658	-52,142	39,82															
02:54:20.577	COM8_115200	2000-0-0 4:50:11.930	0,285	1,003	1,833	8,911	-10,498	9,460	29,202	-11,096	-155,325	-48,158	62,258	41,300	37,39															
02:54:20.582	COM3_115200	2000-0-0 4:45:38.465	0,268	-0,892	2,044	-3,662	8,362	2,563	-25,631	-8,366	-35,722	11,400	67,658	-52,142	39,82															
02:54:20.598	COM8_115200	2000-0-0 4:50:11.950	0,161	0,941	1,838	7,263	-9,644	12,451	29,301	-11,321	-155,193	-48,158	62,258	41,300	37,46															
02:54:20.598	COM8_115200	2000-0-0 4:50:11.970	0,285	0,935	1,838	3,784	-10,681	14,282	29,350	-11,602	-155,067	-48,158	62,258	41,300	37,20															
02:54:20.598	COM3_115200	2000-0-0 4:45:38.485	0,283	-0,882	2,053	0,000	3,113	-0,732	-25,648	-8,289	-35,744	11,400	67,658	-52,142	39,79															
02:54:20.613	COM8_115200	2000-0-0 4:50:11.990	0,258	0,937	1,827	5,920	-5,981	14,587	29,394	-11,794	-154,869	-48,158	62,258	41,300	37,30															
02:54:20.613	COM3_115200	2000-0-0 4:45:38.505	0,288	-0,871	2,046	-0,732	6,348	-5,859	-25,631	-8,212	-35,854	11,400	67,658	-52,142	39,66															
02:54:20.629	COM3_115200	2000-0-0 4:45:38.525	0,302	-0,859	2,052	-0,671	8,057	-10,071	-25,593	-8,146	-36,074	11,400	67,658	-52,142	39,85															
02:54:20.629	COM8_115200	2000-0-0 4:50:12.010	0,291	0,892	1,810	7,629	-7,141	17,090	29,460	-12,019	-154,644	-48,158	62,258	41,300	37,27															
02:54:20.660	COM8_115200	2000-0-0 4:50:12.030	0,315	0,852	1,781	13,611	4,028	17,090	29,592	-12,145	-154,336	-48,158	62,258	41,300	37,36															
02:54:20.660	COM3_115200	2000-0-0 4:45:38.545	0,289	-0,862	2,057	-0,793	5,249	-15,930	-25,543	-8,119	-36,392	11,400	67,658	-52,142	39,79															
02:54:20.676	COM3_115200	2000-0-0 4:45:38.565	0,237	-0,874	2,080	-2,014	4,272	-19,409	-25,494	-8,190	-36,749	11,400	67,658	-52,142	39,73															
02:54:20.676	COM8_115200	2000-0-0 4:50:12.050	0,254	0,875	1,733	17,822	7,996	16,479	29,811	-12,123	-153,951	-48,158	62,258	41,300	37,36															
02:54:20.692	COM8_115200	2000-0-0 4:50:12.070	0,263	0,953	1,734	16,907	7,263	13,672	30,048	-12,068	-153,605	-48,158	62,258	41,300	37,30															
02:54:20.692	COM3_115200	2000-0-0 4:45:38.585	0,294	-0,918	2,061	-2,991	2,686	-19,348	-25,466	-8,278	-37,139	11,400	67,658	-52,142	39,88															
02:54:20.707	COM8_115200	2000-0-0 4:50:12.090	0,278	0,993	1,731	9,949	11,047	7,446	30,207	-11,981	-153,364	-48,158	62,258	41,300	37,36															
02:54:20.723	COM3_115200	2000-0-0 4:45:38.605	0,311	-0,946	2,048	-3,967	7,202	-22,217	-25,455	-8,377	-37,546	11,400	67,658	-52,142	39,82															
02:54:20.754	COM8_115200	2000-0-0 4:50:12.110	0,301	1,005	1,703	8,057	15,808	2,991	30,306	-11,722	-153,127	-48,158	62,258	41,300	37,39															
02:54:20.754	COM8_115200	2000-0-0 4:50:12.130	0,295	0,969	1,701	8,118	18,860	5,920	30,383	-11,415	-152,853	-48,158	62,258	41,300	37,27															
02:54:20.754	COM3_115200	2000-0-0 4:45:38.625	0,311	-0,966	2,047	-5,920	4,761	-18,616	-25,494	-8,448	-37,952	11,400	67,658	-52,142	39,76															
02:54:20.754	COM3_115200	2000-0-0 4:45:38.645	0,327	-0,965	2,058	-8,484	-1,465	-14,954	-25,587	-8,553	-38,276	11,400	67,658	-52,142	39,85															
02:54:20.770	COM3_115200	2000-0-0 4:45:38.665	0,312	-0,931	2,070	-8,118	-1,953	-10,010	-25,697	-8,668	-38,474	11,400	67,658	-52,142	39,82															
02:54:20.770	COM8_115200	2000-0-0 4:50:12.150	0,315	0,900	1,710	11,353	21,423	10,925	30,482	-11,124	-152,479	-48,158	62,258	41,300	37,30															
02:54:20.801	COM8_115200	2000-0-0 4:50:12.170	0,329	0,932	1,738	16,052	22,644	12,512	30,674	-10,833	-152,034	-48,158	62,258	41,300	37,39															
02:54:20.801	COM3_115200	2000-0-0 4:45:38.685	0,313	-0,889	2,021	-8,545	-7,202	-10,803	-25,818	-8,849	-38,622	11,400	67,658	-52,142	39,85															
02:54:20.822	COM3_115200	2000-0-0 4:45:38.705	0,396	-0,925	2,017	-7,874	-21,729	-13,977	-25,955	-9,261	-38,705	11,400	67,658	-52,142	39,79															
02:54:20.826	COM8_115200	2000-0-0 4:50:12.190	0,333	0,890	1,777	15,869	16,663	13,611	30,888	-10,624	-151,595	-48,158	62,258	41,300	37,23															
02:54:20.834	COM3_115200	2000-0-0 4:45:38.725	0,304	-0,917	1,992	-12,573	-16,785	-16,357	-26,120	-9,706	-38,809	11,400	67,658	-52,142	39,76															
02:54:20.834	COM8_115200	2000-0-0 4:50:12.210	0,337	0,865	1,768	20,813	23,865	14,771	31,135	-10,393	-151,122	-48,158	62,258	41,300	37,42															
02:54:20.881	COM8_115200	2000-0-0 4:50:12.230	0,296	0,902	1,736	23,376	27,161	14,099	31,448	-10,074	-150,595	-48,158	62,258	41,300	37,42															
02:54:20.881	COM8_115200	2000-0-0 4:50:12.250	0,298	0,905	1,761	22,888	26,550	11,292	31,778	-9,734	-150,095	-48,158	62,258	41,300	37,30															
02:54:20.881	COM3_115200	2000-0-0 4:45:38.745	0,327	-0,985	1,999	-11,414	-10,315	-14,282	-26,323	-10,102	-38,963	11,400	67,658	-52,142	39,92															
02:54:20.881	COM3_115200	2000-0-0 4:45:38.765	0,277	-0,953	2,015	-14,282	6,470	-10,864	-26,521	-10,162	-39,177	11,400	67,658	-52,142	39,92															
02:54:20.912	COM8_115200	2000-0-0 4:50:12.270	0,376	0,947	1,760	25,452	28,809	7,019	32,146	-9,333	-149,628	-48,158	62,258	41,300	37,36															
02:54:20.912	COM3_115200	2000-0-0 4:45:38.785	0,281	-0,945	1,966	-14,160	6,958	-10,132	-26,741	-10,091	-39,435	11,400	67,658	-52,142	39,85															
02:54:20.912	COM8_115200	2000-0-0 4:50:12.290	0,336	0,938	1,769	24,597	26,184	7,019	32,525	-8,921	-149,194	-48,158	62,258	41,300	37,30															
02:54:20.927	COM3_115200	2000-0-0 4:45:38.805	0,354	-0,907	1,919	-18,494	8,179	-11,902	-26,993	-10,020	-39,710	11,400	67,658	-52,142	39,76															
02:54:20.927	COM3_115200	2000-0-0 4:45:38.825	0,473	-0,989	1,936	-18,677	3,784	-12,207	-27,301	-10,063	-39,968	11,400	67,658	-52,142	39,88															
02:54:20.943	COM8_115200	2000-0-0 4:50:12.310	0,354	0,882	1,789	25,208	22,705	7,996	32,888	-8,613	-148,815	-48,158	62,258	41,300	37,39															
02:54:20.959	COM3_115200	2000-0-0 4:45:38.845	0,304	-0,942	2,056	-17,517	-0,916	-10,071	-27,598	-10,102	-40,188	11,400	67,658	-52,142	39,79															
02:54:20.959	COM8_115200	2000-0-0 4:50:12.330	0,381	0,947	1,729	25,513	19,409	7,996	33,294	-8,361	-148,447	-48,158	62,258	41,300	37,49															
02:54:20.974	COM3_115200	2000-0-0 4:45:38.865	0,350	-0,927	2,025	-15,930	-5,066	-5,493	-27,861	-10,250	-40,287	11,400	67,658	-52,142	39,82															
02:54:20.974	COM8_115200	2000-0-0 4:50:12.350	0,314	0,899	1,731	22,461	16,785	6,531	33,640	-8,157	-148,123	-48,158	62,258	41,300	37,39															
02:54:20.990	COM3_115200	2000-0-0 4:45:38.885	0,323	-0,881	1,955	-19,714	-0,793	-3,723	-28,180	-10,305	-40,353	11,400	67,658	-52,142	39,85															
02:54:20.990	COM8_115200	2000-0-0 4:50:12.370	0,329	0,870	1,734	22,461	20,691	6,226	33,959	-7,943	-147,827	-48,158	62,258	41,300	37,52															
02:54:21.021	COM3_115200	2000-0-0 4:45:38.905	0,379	-0,870	1,938	-28,198	-2,136	-7,385	-28,597	-10,360	-40,468	11,400	67,658	-52,142	39,82															
02:54:21.021	COM8_115200	2000-0-0 4:50:12.390	0,312	0,912	1,724	22,583	18,433	6,714	34,299	-7,690	-147,497	-48,158	62,258	41,300	37,46															
02:54:21.037	COM3_115200	2000-0-0 4:45:38.925	0,351	-0,854	1,958	-36,072	3,052	-12,085	-29,147	-10,399	-40,693	11,400	67,658	-52,142	39,79															
02:54:21.037	COM8_115200	2000-0-0 4:50:12.410	0,276	0,899	1,712	19,043	12,634	3,906	34,585	-7,542	-147,239	-48,158	62,258	41,300	37,33															
02:54:21.052	COM8_115200	2000-0-0 4:50:12.430	0,374	0,903	1,741	17,212	19,043	0,488	34,816	-7,344	-147,047	-48,158	62,258	41,300	37,36															
02:54:21.068	COM3_115200	2000-0-0 4:45:38.945	0,377	-0,817	1,970	-49,805	-13,123	-16,479	-29,960	-10,651	-40,891	11,400	67,658	-52,142	39,85															
02:54:21.068	COM3_115200	2000-0-0 4:45:38.965	0,452	-0,846	1,898	-58,105	-7,751	-13,123	-30,927	-10,981	-41,061	11,400	67,658	-52,142	39,79															
02:54:21.084	COM8_115200	2000-0-0 4:50:12.450	0,308	0,880	1,729	19,775	25,269	2,014	35,074	-6,971	-146,755	-48,158	62,258	41,300	37,30															
02:54:21.099	COM3_115200	2000-0-0 4:45:38.985	0,431	-0,974	1,904	-43,701	15,076	-10,620	-31,783	-10,964	-41,353	11,400	67,658	-52,142	39,88															
02:54:21.099	COM8_115200	2000-0-0 4:50:12.470	0,396	0,912	1,748	20,264	22,156	4,517	35,338	-6,680	-146,437	-48,158	62,258	41,300	37,33															
02:54:21.115	COM3_115200	2000-0-0 4:45:39.005	0,342	-0,921	1,973	-37,109	14,648	-10,071	-32,410	-10,772	-41,682	11,400	67,658	-52,142	39,88															
02:54:21.115	COM8_115200	2000-0-0 4:50:12.490	0,401	0,918	1,721	22,827	26,611	7,874	35,634	-6,372	-146,025	-48,158	62,258	41,300	37,33															
02:54:21.131	COM8_115200	2000-0-0 4:50:12.510	0,392	0,896	1,800	22,522	16,296	12,695	35,942	-6,207	-145,618	-48,158	62,258	41,300	37,33															
02:54:21.131	COM3_115200	2000-0-0 4:45:39.025	0,442	-0,883	1,930	-34,851	9,827	-6,653	-32,970	-10,662	-41,935	11,400	67,658	-52,142	39,88															
02:54:21.162	COM3_115200	2000-0-0 4:45:39.045	0,442	-0,865	1,881	-40,955	17,639	-7,141	-33,602	-10,481	-42,220	11,400	67,658	-52,142	39,88															
02:54:21.162	COM8_115200	2000-0-0 4:50:12.530	0,448	0,808	1,831	26,184	6,836	16,846	36,277	-6,290	-145,278	-48,158	62,258	41,300	37,39															
02:54:21.177	COM3_115200	2000-0-0 4:45:39.065	0,302	-0,905	1,847	-37,048	18,127	-12,268	-34,195	-10,305	-42,616	11,400	67,658	-52,142	39,92															
02:54:21.177	COM8_115200	2000-0-0 4:50:12.550	0,395	0,864	1,773	33,142	3,784	20,203	36,738	-6,487	-144,904	-48,158	62,258	41,300	37,39															
02:54:21.193	COM3_115200	2000-0-0 4:45:39.085	0,343	-0,879	1,877	-35,645	17,883	-12,512	-34,711	-10,162	-43,039	11,400	67,658	-52,142	39,76															
02:54:21.209	COM8_115200	2000-0-0 4:50:12.570	0,383	0,863	1,766	34,607	-3,723	19,714	37,255	-6,801	-144,619	-48,158	62,258	41,300	37,42															
02:54:21.271	COM8_115200	2000-0-0 4:50:12.590	0,416	0,854	1,759	38,269	-7,813	20,081	37,837	-7,191	-144,377	-48,158	62,258	41,300	37,42															
02:54:21.271	COM8_115200	2000-0-0 4:50:12.610	0,422	0,818	1,728	42,175	-6,409	18,982	38,469	-7,614	-144,179	-48,158	62,258	41,300	37,46															
02:54:21.271	COM8_115200	2000-0-0 4:50:12.630	0,354	0,819	1,655	46,448	-0,366	17,090	39,188	-7,921	-143,943	-48,158	62,258	41,300	37,30															
02:54:21.271	COM3_115200	2000-0-0 4:45:39.105	0,417	-0,890	1,864	-40,894	22,827	-14,038	-35,272	-9,970	-43,528	11,400	67,658	-52,142	39,82															
02:54:21.271	COM3_115200	2000-0-0 4:45:39.125	0,374	-0,863	1,883	-41,077	13,550	-15,259	-35,887	-9,871	-43,967	11,400	67,658	-52,142	39,82															
02:54:21.271	COM8_115200	2000-0-0 4:50:12.650	0,380	0,789	1,621	47,363	1,099	14,343	39,924	-8,163	-143,696	-48,158	62,258	41,300	37,23															
02:54:21.271	COM3_115200	2000-0-0 4:45:39.145	0,411	-0,878	1,896	-44,617	25,757	-11,047	-36,541	-9,723	-44,418	11,400	67,658	-52,142	39,76															
02:54:21.271	COM3_115200	2000-0-0 4:45:39.165	0,323	-0,886	1,862	-50,110	36,865	-11,597	-37,266	-9,283	-45,027	11,400	67,658	-52,142	39,85															
02:54:21.287	COM3_115200	2000-0-0 4:45:39.185	0,361	-0,866	1,847	-48,523	28,076	-13,855	-38,007	-8,948	-45,593	11,400	67,658	-52,142	39,82															
02:54:21.302	COM8_115200	2000-0-0 4:50:12.670	0,395	0,805	1,633	46,570	4,456	16,296	40,666	-8,328	-143,410	-48,158	62,258	41,300	37,33															
02:54:21.318	COM8_115200	2000-0-0 4:50:12.690	0,443	0,716	1,635	48,584	3,357	16,235	41,391	-8,536	-143,130	-48,158	62,258	41,300	37,39															
02:54:21.334	COM3_115200	2000-0-0 4:45:39.205	0,420	-0,813	1,872	-45,105	18,738	-17,517	-38,688	-8,833	-46,099	11,400	67,658	-52,142	39,76															
02:54:21.334	COM8_115200	2000-0-0 4:50:12.710	0,368	0,723	1,544	49,438	2,136	20,569	42,127	-8,789	-142,778	-48,158	62,258	41,300	37,39															
02:54:21.349	COM3_115200	2000-0-0 4:45:39.225	0,422	-0,763	1,918	-45,654	18,250	-26,428	-39,337	-8,839	-46,697	11,400	67,658	-52,142	39,70															
02:54:21.349	COM3_115200	2000-0-0 4:45:39.245	0,331	-0,687	1,855	-47,974	16,602	-33,813	-39,990	-8,965	-47,379	11,400	67,658	-52,142	39,73															
02:54:21.349	COM8_115200	2000-0-0 4:50:12.730	0,426	0,735	1,585	45,837	-5,737	21,545	42,814	-9,157	-142,526	-48,158	62,258	41,300	37,30															
02:54:21.396	COM8_115200	2000-0-0 4:50:12.750	0,453	0,795	1,547	44,434	-0,183	19,775	43,484	-9,503	-142,273	-48,158	62,258	41,300	37,52															
02:54:21.396	COM8_115200	2000-0-0 4:50:12.770	0,474	0,740	1,538	42,297	3,723	20,447	44,066	-9,794	-141,927	-48,158	62,258	41,300	37,27															
02:54:21.396	COM3_115200	2000-0-0 4:45:39.265	0,502	-0,843	1,708	-45,898	10,986	-40,344	-40,622	-9,212	-48,181	11,400	67,658	-52,142	39,82															
02:54:21.396	COM3_115200	2000-0-0 4:45:39.285	0,564	-0,923	1,845	-38,818	-6,165	-38,086	-41,133	-9,767	-48,801	11,400	67,658	-52,142	39,79															
02:54:21.412	COM3_115200	2000-0-0 4:45:39.305	0,473	-0,768	1,912	-38,025	-9,705	-40,283	-41,605	-10,481	-49,180	11,400	67,658	-52,142	39,76															
02:54:21.412	COM8_115200	2000-0-0 4:50:12.790	0,487	0,710	1,479	42,603	11,536	19,958	44,599	-10,020	-141,526	-48,158	62,258	41,300	37,42															
02:54:21.427	COM8_115200	2000-0-0 4:50:12.810	0,480	0,790	1,498	41,321	14,465	16,113	45,159	-10,096	-141,103	-48,158	62,258	41,300	37,33															
02:54:21.459	COM3_115200	2000-0-0 4:45:39.325	0,460	-0,763	1,797	-41,687	-1,343	-47,485	-42,067	-11,124	-49,812	11,400	67,658	-52,142	39,73															
02:54:21.459	COM3_115200	2000-0-0 4:45:39.345	0,487	-0,875	1,751	-40,344	0,305	-46,631	-42,523	-11,777	-50,532	11,400	67,658	-52,142	39,82															
02:54:21.459	COM8_115200	2000-0-0 4:50:12.830	0,480	0,759	1,533	38,635	15,808	17,212	45,637	-10,173	-140,603	-48,158	62,258	41,300	37,42															
02:54:21.474	COM3_115200	2000-0-0 4:45:39.365	0,548	-0,838	1,688	-37,781	-9,583	-35,889	-42,962	-12,387	-51,086	11,400	67,658	-52,142	39,70															
02:54:21.490	COM8_115200	2000-0-0 4:50:12.850	0,524	0,723	1,544	40,039	18,616	20,020	46,088	-10,250	-140,109	-48,158	62,258	41,300	37,33															
02:54:21.490	COM3_115200	2000-0-0 4:45:39.385	0,519	-0,782	1,698	-37,598	-17,578	-35,522	-43,418	-13,090	-51,361	11,400	67,658	-52,142	39,73															
02:54:21.505	COM8_115200	2000-0-0 4:50:12.870	0,468	0,667	1,551	46,448	16,479	17,212	46,620	-10,322	-139,576	-48,158	62,258	41,300	37,33															
02:54:21.505	COM3_115200	2000-0-0 4:45:39.405	0,455	-0,734	1,704	-43,091	-5,554	-40,955	-43,901	-13,777	-51,823	11,400	67,658	-52,142	39,92															
02:54:21.521	COM8_115200	2000-0-0 4:50:12.890	0,521	0,753	1,542	48,584	13,916	11,597	47,263	-10,388	-139,197	-48,158	62,258	41,300	37,33															
02:54:21.537	COM3_115200	2000-0-0 4:45:39.425	0,534	-0,728	1,710	-48,279	-2,075	-38,025	-44,445	-14,387	-52,394	11,400	67,658	-52,142	39,73															
02:54:21.537	COM8_115200	2000-0-0 4:50:12.910	0,471	0,700	1,543	51,636	13,489	12,878	47,950	-10,432	-138,801	-48,158	62,258	41,300	37,30															
02:54:21.552	COM8_115200	2000-0-0 4:50:12.930	0,521	0,678	1,534	57,495	15,320	13,550	48,691	-10,530	-138,439	-48,158	62,258	41,300	37,39															
02:54:21.575	COM3_115200	2000-0-0 4:45:39.445	0,630	-0,735	1,622	-55,176	1,831	-31,372	-45,126	-14,848	-52,888	11,400	67,658	-52,142	39,70															
02:54:21.580	COM3_115200	2000-0-0 4:45:39.465	0,413	-0,683	1,601	-59,387	12,268	-30,212	-45,890	-15,134	-53,470	11,400	67,658	-52,142	39,79															
02:54:21.591	COM8_115200	2000-0-0 4:50:12.950	0,477	0,694	1,515	60,486	15,381	10,132	49,537	-10,558	-138,054	-48,158	62,258	41,300	37,33															
02:54:21.615	COM8_115200	2000-0-0 4:50:12.970	0,474	0,666	1,477	61,951	14,465	7,935	50,416	-10,558	-137,719	-48,158	62,258	41,300	37,39															
02:54:21.615	COM8_115200	2000-0-0 4:50:12.990	0,527	0,665	1,474	60,364	11,475	9,094	51,273	-10,607	-137,406	-48,158	62,258	41,300	37,33															
02:54:21.615	COM3_115200	2000-0-0 4:45:39.485	0,484	-0,688	1,604	-55,542	11,719	-27,954	-46,593	-15,408	-54,064	11,400	67,658	-52,142	39,79															
02:54:21.631	COM3_115200	2000-0-0 4:45:39.505	0,667	-0,678	1,629	-50,476	24,902	-27,161	-47,164	-15,540	-54,789	11,400	67,658	-52,142	39,66															
02:54:21.631	COM3_115200	2000-0-0 4:45:39.525	0,660	-0,658	1,615	-49,255	27,405	-31,128	-47,670	-15,584	-55,646	11,400	67,658	-52,142	39,66															
02:54:21.646	COM8_115200	2000-0-0 4:50:13.010	0,514	0,623	1,441	56,458	10,193	11,963	52,053	-10,717	-137,126	-48,158	62,258	41,300	37,27															
02:54:21.646	COM3_115200	2000-0-0 4:45:39.545	0,622	-0,627	1,647	-47,485	26,062	-32,471	-48,109	-15,754	-56,497	11,400	67,658	-52,142	39,85															
02:54:21.662	COM8_115200	2000-0-0 4:50:13.030	0,450	0,604	1,396	51,697	9,827	13,184	52,734	-10,865	-136,818	-48,158	62,258	41,300	37,46															
02:54:21.678	COM3_115200	2000-0-0 4:45:39.565	0,571	-0,659	1,627	-45,593	33,386	-38,452	-48,483	-15,881	-57,508	11,400	67,658	-52,142	39,76															
02:54:21.678	COM8_115200	2000-0-0 4:50:13.050	0,516	0,612	1,395	44,556	6,348	12,085	53,284	-11,036	-136,560	-48,158	62,258	41,300	37,33															
02:54:21.709	COM3_115200	2000-0-0 4:45:39.585	0,614	-0,644	1,627	-42,725	11,658	-43,762	-48,807	-16,243	-58,414	11,400	67,658	-52,142	39,82															
02:54:21.709	COM8_115200	2000-0-0 4:50:13.070	0,586	0,639	1,381	40,588	10,376	17,761	53,712	-11,250	-136,247	-48,158	62,258	41,300	37,27															
02:54:21.724	COM8_115200	2000-0-0 4:50:13.090	0,552	0,646	1,375	33,813	9,583	21,973	54,003	-11,536	-135,840	-48,158	62,258	41,300	37,36															
02:54:21.724	COM3_115200	2000-0-0 4:45:39.605	0,696	-0,625	1,613	-41,260	-0,122	-44,373	-49,136	-16,880	-59,090	11,400	67,658	-52,142	39,79															
02:54:21.740	COM8_115200	2000-0-0 4:50:13.110	0,546	0,567	1,404	33,203	7,813	25,146	54,223	-11,909	-135,439	-48,158	62,258	41,300	37,49															
02:54:21.740	COM3_115200	2000-0-0 4:45:39.625	0,731	-0,646	1,529	-41,687	-0,793	-43,030	-49,499	-17,567	-59,672	11,400	67,658	-52,142	39,70															
02:54:21.756	COM8_115200	2000-0-0 4:50:13.130	0,582	0,578	1,415	33,264	2,502	26,123	54,454	-12,360	-135,049	-48,158	62,258	41,300	37,39															
02:54:21.756	COM3_115200	2000-0-0 4:45:39.645	0,646	-0,614	1,564	-35,034	-26,917	-38,696	-49,834	-18,424	-60,002	11,400	67,658	-52,142	39,88															
02:54:21.771	COM3_115200	2000-0-0 4:45:39.665	0,703	-0,588	1,609	-34,058	-35,645	-44,189	-50,164	-19,523	-60,062	11,400	67,658	-52,142	39,92															
02:54:21.787	COM8_115200	2000-0-0 4:50:13.150	0,571	0,565	1,423	33,630	0,427	26,184	54,690	-12,859	-134,720	-48,158	62,258	41,300	37,36															
02:54:21.787	COM3_115200	2000-0-0 4:45:39.685	0,763	-0,609	1,536	-35,461	-23,560	-43,701	-50,493	-20,572	-60,205	11,400	67,658	-52,142	39,79															
02:54:21.803	COM8_115200	2000-0-0 4:50:13.170	0,560	0,533	1,435	36,804	0,122	26,123	54,954	-13,343	-134,418	-48,158	62,258	41,300	37,30															
02:54:21.818	COM8_115200	2000-0-0 4:50:13.190	0,531	0,531	1,399	38,452	-2,441	27,710	55,261	-13,881	-134,116	-48,158	62,258	41,300	37,27															
02:54:21.818	COM3_115200	2000-0-0 4:45:39.705	0,638	-0,550	1,547	-36,072	-16,541	-41,931	-50,768	-21,500	-60,507	11,400	67,658	-52,142	39,79															
02:54:21.839	COM3_115200	2000-0-0 4:45:39.725	0,634	-0,514	1,519	-37,415	-24,231	-42,175	-51,064	-22,396	-60,793	11,400	67,658	-52,142	39,82															
02:54:21.841	COM8_115200	2000-0-0 4:50:13.210	0,573	0,556	1,368	40,588	-2,014	24,963	55,624	-14,392	-133,857	-48,158	62,258	41,300	37,30															
02:54:21.849	COM3_115200	2000-0-0 4:45:39.745	0,727	-0,555	1,490	-38,696	-16,296	-42,908	-51,383	-23,329	-61,062	11,400	67,658	-52,142	39,85															
02:54:21.865	COM8_115200	2000-0-0 4:50:13.230	0,587	0,569	1,376	39,185	2,258	25,330	55,948	-14,875	-133,539	-48,158	62,258	41,300	37,42															
02:54:21.865	COM3_115200	2000-0-0 4:45:39.765	0,741	-0,545	1,501	-36,377	-24,597	-42,114	-51,663	-24,230	-61,364	11,400	67,658	-52,142	39,76															
02:54:21.880	COM8_115200	2000-0-0 4:50:13.250	0,582	0,514	1,369	42,419	1,831	27,710	56,272	-15,348	-133,176	-48,158	62,258	41,300	37,36															
02:54:21.896	COM3_115200	2000-0-0 4:45:39.785	0,647	-0,468	1,537	-37,537	-31,067	-39,734	-52,004	-25,230	-61,463	11,400	67,658	-52,142	39,79															
02:54:21.896	COM8_115200	2000-0-0 4:50:13.270	0,581	0,499	1,348	43,396	-4,456	26,794	56,656	-15,892	-132,880	-48,158	62,258	41,300	37,36															
02:54:21.912	COM3_115200	2000-0-0 4:45:39.805	0,688	-0,471	1,518	-44,800	-15,808	-38,696	-52,394	-26,104	-61,683	11,400	67,658	-52,142	39,70															
02:54:21.912	COM8_115200	2000-0-0 4:50:13.290	0,599	0,500	1,362	45,898	-1,831	26,306	57,079	-16,419	-132,632	-48,158	62,258	41,300	37,42															
02:54:21.927	COM3_115200	2000-0-0 4:45:39.825	0,746	-0,476	1,439	-46,692	-5,737	-36,499	-52,773	-26,768	-62,111	11,400	67,658	-52,142	39,66															
02:54:21.943	COM8_115200	2000-0-0 4:50:13.310	0,583	0,461	1,314	49,561	0,122	24,048	57,541	-16,902	-132,336	-48,158	62,258	41,300	37,23															
02:54:21.958	COM8_115200	2000-0-0 4:50:13.330	0,619	0,448	1,338	49,500	-0,061	22,461	58,013	-17,353	-132,067	-48,158	62,258	41,300	37,36															
02:54:21.974	COM8_115200	2000-0-0 4:50:13.350	0,586	0,415	1,332	51,636	2,563	21,912	58,519	-17,770	-131,781	-48,158	62,258	41,300	37,20															
02:54:21.990	COM3_115200	2000-0-0 4:45:39.845	0,701	-0,422	1,452	-43,091	-16,052	-35,889	-53,124	-27,449	-62,479	11,400	67,658	-52,142	39,79															
02:54:21.990	COM3_115200	2000-0-0 4:45:39.865	0,703	-0,367	1,511	-44,128	-14,709	-32,166	-53,503	-28,174	-62,710	11,400	67,658	-52,142	39,73															
02:54:22.005	COM8_115200	2000-0-0 4:50:13.370	0,589	0,429	1,290	51,697	-1,526	21,240	59,035	-18,193	-131,506	-48,158	62,258	41,300	37,36															
02:54:22.005	COM3_115200	2000-0-0 4:45:39.885	0,726	-0,388	1,434	-48,340	1,282	-34,119	-53,839	-28,724	-63,177	11,400	67,658	-52,142	39,66															
02:54:22.005	COM3_115200	2000-0-0 4:45:39.905	0,722	-0,383	1,417	-46,143	-2,258	-30,579	-54,130	-29,229	-63,710	11,400	67,658	-52,142	39,76															
02:54:22.037	COM8_115200	2000-0-0 4:50:13.390	0,624	0,377	1,294	49,927	2,197	20,874	59,496	-18,611	-131,265	-48,158	62,258	41,300	37,30															
02:54:22.037	COM8_115200	2000-0-0 4:50:13.410	0,602	0,359	1,291	51,147	2,319	21,118	59,963	-19,001	-130,974	-48,158	62,258	41,300	37,52															
02:54:22.052	COM3_115200	2000-0-0 4:45:39.925	0,670	-0,360	1,446	-44,495	-2,319	-29,053	-54,415	-29,702	-64,138	11,400	67,658	-52,142	39,66															
02:54:22.052	COM3_115200	2000-0-0 4:45:39.945	0,729	-0,323	1,410	-42,603	7,690	-31,128	-54,575	-30,119	-64,720	11,400	67,658	-52,142	39,92															
02:54:22.052	COM8_115200	2000-0-0 4:50:13.430	0,612	0,325	1,323	47,852	-0,793	20,081	60,397	-19,418	-130,759	-48,158	62,258	41,300	37,42															
02:54:22.083	COM3_115200	2000-0-0 4:45:39.965	0,793	-0,317	1,358	-37,476	8,301	-31,189	-54,591	-30,482	-65,435	11,400	67,658	-52,142	39,82															
02:54:22.083	COM8_115200	2000-0-0 4:50:13.450	0,603	0,285	1,306	46,143	1,587	20,935	60,749	-19,836	-130,490	-48,158	62,258	41,300	37,33															
02:54:22.083	COM3_115200	2000-0-0 4:45:39.985	0,705	-0,317	1,431	-34,790	-3,235	-30,701	-54,613	-30,959	-65,940	11,400	67,658	-52,142	39,82															
02:54:22.099	COM8_115200	2000-0-0 4:50:13.470	0,668	0,283	1,278	41,443	4,395	19,531	61,013	-20,198	-130,172	-48,158	62,258	41,300	37,42															
02:54:22.115	COM8_115200	2000-0-0 4:50:13.490	0,650	0,268	1,254	40,161	4,395	23,376	61,177	-20,588	-129,814	-48,158	62,258	41,300	37,33															
02:54:22.115	COM3_115200	2000-0-0 4:45:40.005	0,724	-0,315	1,392	-34,241	-0,610	-29,053	-54,613	-31,399	-66,451	11,400	67,658	-52,142	39,76															
02:54:22.130	COM3_115200	2000-0-0 4:45:40.025	0,821	-0,253	1,334	-28,625	8,667	-25,940	-54,503	-31,783	-67,006	11,400	67,658	-52,142	39,79															
02:54:22.146	COM8_115200	2000-0-0 4:50:13.510	0,601	0,250	1,257	35,461	-4,883	22,339	61,331	-21,077	-129,617	-48,158	62,258	41,300	37,42															
02:54:22.146	COM3_115200	2000-0-0 4:45:40.045	0,760	-0,262	1,374	-29,785	0,732	-30,701	-54,316	-32,124	-67,632	11,400	67,658	-52,142	39,85															
02:54:22.161	COM8_115200	2000-0-0 4:50:13.530	0,639	0,259	1,239	35,156	-5,859	18,433	61,469	-21,533	-129,479	-48,158	62,258	41,300	37,20															
02:54:22.177	COM3_115200	2000-0-0 4:45:40.065	0,728	-0,290	1,382	-27,832	1,038	-26,428	-54,185	-32,569	-68,126	11,400	67,658	-52,142	39,70															
02:54:22.177	COM8_115200	2000-0-0 4:50:13.550	0,647	0,230	1,236	32,288	-4,578	19,897	61,534	-21,984	-129,353	-48,158	62,258	41,300	37,36															
02:54:22.193	COM3_115200	2000-0-0 4:45:40.085	0,779	-0,214	1,372	-26,917	0,732	-20,691	-54,053	-32,904	-68,544	11,400	67,658	-52,142	39,70															
02:54:22.193	COM8_115200	2000-0-0 4:50:13.570	0,626	0,188	1,274	30,640	-4,822	22,278	61,556	-22,473	-129,194	-48,158	62,258	41,300	37,30															
02:54:22.208	COM3_115200	2000-0-0 4:45:40.105	0,718	-0,175	1,349	-26,672	8,728	-23,865	-53,844	-33,157	-69,099	11,400	67,658	-52,142	39,79															
02:54:22.208	COM8_115200	2000-0-0 4:50:13.590	0,596	0,163	1,294	35,706	-5,188	22,034	61,617	-22,967	-129,001	-48,158	62,258	41,300	37,39															
02:54:22.240	COM3_115200	2000-0-0 4:45:40.125	0,765	-0,173	1,331	-26,855	5,371	-26,489	-53,580	-33,437	-69,736	11,400	67,658	-52,142	39,79															
02:54:22.240	COM8_115200	2000-0-0 4:50:13.610	0,590	0,147	1,289	37,903	-4,456	21,790	61,721	-23,456	-128,826	-48,158	62,258	41,300	37,33															
02:54:22.255	COM3_115200	2000-0-0 4:45:40.145	0,731	-0,157	1,397	-22,217	-0,427	-26,550	-53,328	-33,827	-70,230	11,400	67,658	-52,142	39,79															
02:54:22.255	COM8_115200	2000-0-0 4:50:13.630	0,605	0,123	1,250	41,748	-6,042	21,240	61,880	-23,928	-128,655	-48,158	62,258	41,300	37,33															
02:54:22.271	COM3_115200	2000-0-0 4:45:40.165	0,721	-0,149	1,382	-28,076	10,376	-31,189	-52,993	-34,178	-70,911	11,400	67,658	-52,142	39,70															
02:54:22.287	COM8_115200	2000-0-0 4:50:13.650	0,592	0,143	1,235	40,771	-7,019	25,513	62,062	-24,472	-128,496	-48,158	62,258	41,300	37,30															
02:54:22.287	COM3_115200	2000-0-0 4:45:40.185	0,820	-0,153	1,294	-27,405	12,756	-30,334	-52,619	-34,470	-71,757	11,400	67,658	-52,142	39,85															
02:54:22.302	COM8_115200	2000-0-0 4:50:13.670	0,620	0,112	1,226	42,786	-6,165	24,536	62,232	-25,016	-128,315	-48,158	62,258	41,300	37,33															
02:54:22.318	COM3_115200	2000-0-0 4:45:40.205	0,813	-0,141	1,355	-19,165	-10,986	-29,236	-52,306	-34,915	-72,274	11,400	67,658	-52,142	39,73															
02:54:22.318	COM8_115200	2000-0-0 4:50:13.690	0,604	0,132	1,193	42,358	-6,104	21,973	62,424	-25,521	-128,117	-48,158	62,258	41,300	37,46															
02:54:22.364	COM8_115200	2000-0-0 4:50:13.710	0,635	0,110	1,181	39,612	-7,751	19,958	62,578	-25,977	-127,991	-48,158	62,258	41,300	37,36															
02:54:22.364	COM8_115200	2000-0-0 4:50:13.730	0,611	0,098	1,216	39,185	-13,123	22,339	62,726	-26,499	-127,903	-48,158	62,258	41,300	37,27															
02:54:22.364	COM3_115200	2000-0-0 4:45:40.225	0,770	-0,158	1,417	-22,156	-6,409	-32,288	-52,009	-35,486	-72,675	11,400	67,658	-52,142	39,82															
02:54:22.380	COM3_115200	2000-0-0 4:45:40.245	0,824	-0,188	1,381	-20,447	11,353	-30,396	-51,597	-35,898	-73,334	11,400	67,658	-52,142	39,82															
02:54:22.380	COM3_115200	2000-0-0 4:45:40.265	0,805	-0,122	1,317	-18,616	6,042	-27,100	-51,059	-36,178	-74,119	11,400	67,658	-52,142	39,76															
02:54:22.380	COM8_115200	2000-0-0 4:50:13.750	0,638	0,083	1,228	38,086	-10,376	21,912	62,842	-27,032	-127,826	-48,158	62,258	41,300	37,36															
02:54:22.396	COM3_115200	2000-0-0 4:45:40.285	0,749	-0,086	1,398	-12,268	-11,658	-26,733	-50,636	-36,612	-74,548	11,400	67,658	-52,142	39,82															
02:54:22.396	COM8_115200	2000-0-0 4:50:13.770	0,643	0,105	1,194	35,278	-4,883	21,240	62,891	-27,504	-127,661	-48,158	62,258	41,300	37,39															
02:54:22.411	COM3_115200	2000-0-0 4:45:40.305	0,786	-0,087	1,434	-17,517	-4,456	-32,166	-50,197	-37,123	-74,993	11,400	67,658	-52,142	39,70															
02:54:22.427	COM8_115200	2000-0-0 4:50:13.790	0,623	0,064	1,228	34,668	-6,958	22,888	62,864	-27,977	-127,441	-48,158	62,258	41,300	37,30															
02:54:22.427	COM3_115200	2000-0-0 4:45:40.325	0,707	-0,127	1,432	-18,677	5,127	-34,973	-49,669	-37,579	-75,729	11,400	67,658	-52,142	39,70															
02:54:22.443	COM8_115200	2000-0-0 4:50:13.810	0,580	0,038	1,260	33,264	-9,033	26,550	62,825	-28,521	-127,244	-48,158	62,258	41,300	37,36															
02:54:22.458	COM3_115200	2000-0-0 4:45:40.345	0,645	-0,046	1,395	-19,226	2,197	-34,790	-49,076	-37,969	-76,542	11,400	67,658	-52,142	39,66															
02:54:22.458	COM8_115200	2000-0-0 4:50:13.830	0,587	0,035	1,246	36,316	-7,019	27,649	62,798	-29,103	-126,991	-48,158	62,258	41,300	37,36															
02:54:22.474	COM3_115200	2000-0-0 4:45:40.365	0,675	-0,018	1,449	-23,804	-8,911	-37,415	-48,658	-38,496	-77,195	11,400	67,658	-52,142	39,79															
02:54:22.474	COM8_115200	2000-0-0 4:50:13.850	0,624	0,026	1,276	35,828	-3,113	28,748	62,726	-29,658	-126,661	-48,158	62,258	41,300	37,49															
02:54:22.490	COM3_115200	2000-0-0 4:45:40.385	0,762	-0,015	1,467	-30,090	9,216	-41,565	-48,192	-38,990	-78,085	11,400	67,658	-52,142	39,73															
02:54:22.505	COM8_115200	2000-0-0 4:50:13.870	0,603	0,002	1,262	36,682	6,104	31,738	62,551	-30,179	-126,145	-48,158	62,258	41,300	37,23															
02:54:22.521	COM3_115200	2000-0-0 4:45:40.405	0,737	-0,002	1,437	-34,119	17,883	-39,490	-47,626	-39,282	-79,277	11,400	67,658	-52,142	39,85															
02:54:22.521	COM8_115200	2000-0-0 4:50:13.890	0,599	-0,013	1,274	36,743	10,742	32,837	62,314	-30,674	-125,458	-48,158	62,258	41,300	37,42															
02:54:22.536	COM8_115200	2000-0-0 4:50:13.910	0,584	-0,020	1,287	38,330	11,353	38,208	62,051	-31,212	-124,711	-48,158	62,258	41,300	37,36															
02:54:22.536	COM3_115200	2000-0-0 4:45:40.425	0,641	0,007	1,410	-35,522	10,498	-42,236	-47,142	-39,589	-80,414	11,400	67,658	-52,142	39,85															
02:54:22.552	COM3_115200	2000-0-0 4:45:40.445	0,702	0,025	1,400	-34,119	-12,146	-44,556	-46,791	-40,155	-81,332	11,400	67,658	-52,142	39,73															
02:54:22.552	COM8_115200	2000-0-0 4:50:13.930	0,635	-0,044	1,293	42,603	17,212	38,940	61,760	-31,745	-123,832	-48,158	62,258	41,300	37,33															
02:54:22.568	COM8_115200	2000-0-0 4:50:13.950	0,559	-0,095	1,274	41,687	12,756	39,124	61,496	-32,289	-122,921	-48,158	62,258	41,300	37,36															
02:54:22.583	COM3_115200	2000-0-0 4:45:40.465	0,748	0,058	1,359	-36,682	-9,033	-44,983	-46,533	-40,836	-82,079	11,400	67,658	-52,142	39,76															
02:54:22.598	COM3_115200	2000-0-0 4:45:40.485	0,802	0,021	1,390	-38,574	-9,705	-49,805	-46,252	-41,561	-82,952	11,400	67,658	-52,142	39,79															
02:54:22.602	COM8_115200	2000-0-0 4:50:13.970	0,596	-0,101	1,285	42,847	5,005	42,603	61,287	-32,899	-122,130	-48,158	62,258	41,300	37,39															
02:54:22.617	COM3_115200	2000-0-0 4:45:40.505	0,834	0,062	1,299	-32,593	-1,831	-49,011	-45,764	-42,182	-84,018	11,400	67,658	-52,142	39,85															
02:54:22.630	COM8_115200	2000-0-0 4:50:13.990	0,623	-0,141	1,254	43,396	3,845	40,344	61,068	-33,563	-121,382	-48,158	62,258	41,300	37,27															
02:54:22.640	COM3_115200	2000-0-0 4:45:40.525	0,818	0,077	1,341	-32,288	-13,000	-44,312	-45,379	-42,880	-84,864	11,400	67,658	-52,142	39,76															
02:54:22.664	COM3_115200	2000-0-0 4:45:40.545	0,835	0,072	1,350	-31,372	-0,549	-49,011	-44,830	-43,467	-85,902	11,400	67,658	-52,142	39,73															
02:54:22.679	COM8_115200	2000-0-0 4:50:14.010	0,563	-0,188	1,337	53,894	-10,193	35,156	61,051	-34,200	-120,800	-48,158	62,258	41,300	37,30															
02:54:22.695	COM8_115200	2000-0-0 4:50:14.030	0,680	-0,162	1,213	43,457	-10,498	31,128	61,089	-34,799	-120,394	-48,158	62,258	41,300	37,36															
02:54:22.695	COM8_115200	2000-0-0 4:50:14.050	0,451	-0,180	1,229	46,692	-1,221	14,709	61,089	-35,299	-119,954	-48,158	62,258	41,300	37,39															
02:54:22.695	COM3_115200	2000-0-0 4:45:40.565	0,829	0,113	1,292	-28,381	6,592	-44,373	-44,143	-43,973	-87,056	11,400	67,658	-52,142	39,70															
02:54:22.695	COM3_115200	2000-0-0 4:45:40.585	0,776	0,152	1,354	-30,701	-9,949	-39,551	-43,561	-44,467	-88,061	11,400	67,658	-52,142	39,76															
02:54:22.726	COM8_115200	2000-0-0 4:50:14.070	0,665	-0,225	1,207	44,434	-18,555	37,476	61,128	-35,881	-119,724	-48,158	62,258	41,300	37,30															
02:54:22.726	COM8_115200	2000-0-0 4:50:14.090	0,623	-0,250	1,207	44,556	-9,888	31,128	61,128	-36,535	-119,366	-48,158	62,258	41,300	37,30															
02:54:22.726	COM3_115200	2000-0-0 4:45:40.605	0,808	0,175	1,397	-31,799	-3,784	-37,292	-43,105	-44,923	-88,929	11,400	67,658	-52,142	39,79															
02:54:22.742	COM3_115200	2000-0-0 4:45:40.625	0,767	0,202	1,399	-32,410	2,808	-39,185	-42,550	-45,330	-89,940	11,400	67,658	-52,142	39,76															
02:54:22.742	COM8_115200	2000-0-0 4:50:14.110	0,601	-0,244	1,226	41,748	-12,939	37,659	61,057	-37,244	-118,993	-48,158	62,258	41,300	37,36															
02:54:22.757	COM3_115200	2000-0-0 4:45:40.645	0,659	0,235	1,429	-30,945	5,371	-41,016	-41,847	-45,637	-91,115	11,400	67,658	-52,142	39,66															
02:54:22.757	COM8_115200	2000-0-0 4:50:14.130	0,665	-0,274	1,217	41,443	-9,888	35,645	60,892	-37,936	-118,531	-48,158	62,258	41,300	37,30															
02:54:22.773	COM3_115200	2000-0-0 4:45:40.665	0,671	0,286	1,366	-32,837	-3,296	-41,687	-41,204	-46,049	-92,230	11,400	67,658	-52,142	39,76															
02:54:22.773	COM8_115200	2000-0-0 4:50:14.150	0,672	-0,247	1,221	38,818	-5,615	38,818	60,677	-38,650	-118,043	-48,158	62,258	41,300	37,27															
02:54:22.788	COM3_115200	2000-0-0 4:45:40.685	0,691	0,276	1,366	-32,837	-18,616	-45,837	-40,699	-46,637	-93,170	11,400	67,658	-52,142	39,73															
02:54:22.788	COM8_115200	2000-0-0 4:50:14.170	0,633	-0,305	1,216	35,645	4,822	30,823	60,255	-39,172	-117,334	-48,158	62,258	41,300	37,17															
02:54:22.804	COM3_115200	2000-0-0 4:45:40.705	0,712	0,285	1,406	-32,410	-13,794	-45,593	-40,155	-47,351	-94,109	11,400	67,658	-52,142	39,76															
02:54:22.820	COM8_115200	2000-0-0 4:50:14.190	0,594	-0,341	1,239	36,377	8,484	29,114	59,727	-39,545	-116,494	-48,158	62,258	41,300	37,36															
02:54:22.835	COM3_115200	2000-0-0 4:45:40.725	0,714	0,284	1,414	-31,494	-11,902	-48,523	-39,512	-47,928	-95,186	11,400	67,658	-52,142	39,76															
02:54:22.835	COM8_115200	2000-0-0 4:50:14.210	0,538	-0,341	1,235	34,424	7,263	33,325	59,172	-39,968	-115,670	-48,158	62,258	41,300	37,27															
02:54:22.856	COM3_115200	2000-0-0 4:45:40.745	0,697	0,313	1,390	-29,175	-14,832	-49,622	-38,754	-48,565	-96,367	11,400	67,658	-52,142	39,82															
02:54:22.861	COM8_115200	2000-0-0 4:50:14.230	0,537	-0,369	1,239	31,494	8,240	30,579	58,568	-40,364	-114,835	-48,158	62,258	41,300	37,33															
02:54:22.865	COM3_115200	2000-0-0 4:45:40.765	0,742	0,338	1,375	-33,508	-22,827	-44,128	-38,150	-49,241	-97,361	11,400	67,658	-52,142	39,85															
02:54:22.881	COM8_115200	2000-0-0 4:50:14.250	0,558	-0,369	1,283	35,400	10,986	30,029	57,920	-40,682	-113,901	-48,158	62,258	41,300	37,39															
02:54:22.881	COM3_115200	2000-0-0 4:45:40.785	0,773	0,310	1,384	-34,790	-18,250	-47,485	-37,540	-49,867	-98,427	11,400	67,658	-52,142	39,73															
02:54:22.896	COM8_115200	2000-0-0 4:50:14.270	0,539	-0,382	1,294	33,508	7,935	31,250	57,266	-41,006	-112,967	-48,158	62,258	41,300	37,42															
02:54:22.912	COM3_115200	2000-0-0 4:45:40.805	0,741	0,331	1,363	-30,396	-17,151	-47,546	-36,810	-50,532	-99,542	11,400	67,658	-52,142	39,70															
02:54:22.912	COM8_115200	2000-0-0 4:50:14.290	0,546	-0,407	1,309	34,851	6,409	32,593	56,635	-41,380	-112,088	-48,158	62,258	41,300	37,55															
02:54:22.928	COM3_115200	2000-0-0 4:45:40.825	0,721	0,369	1,345	-24,902	-14,648	-43,640	-36,024	-51,103	-100,629	11,400	67,658	-52,142	39,76															
02:54:22.943	COM8_115200	2000-0-0 4:50:14.310	0,572	-0,405	1,313	35,095	7,446	29,236	56,025	-41,721	-111,198	-48,158	62,258	41,300	37,46															
02:54:22.943	COM3_115200	2000-0-0 4:45:40.845	0,714	0,415	1,402	-26,306	-10,803	-44,922	-35,035	-51,570	-101,920	11,400	67,658	-52,142	39,82															
02:54:22.959	COM8_115200	2000-0-0 4:50:14.330	0,534	-0,437	1,319	35,583	10,498	30,090	55,360	-41,984	-110,248	-48,158	62,258	41,300	37,27															
02:54:22.975	COM3_115200	2000-0-0 4:45:40.865	0,729	0,431	1,381	-26,245	-9,460	-45,044	-34,025	-51,993	-103,255	11,400	67,658	-52,142	39,79															
02:54:22.975	COM8_115200	2000-0-0 4:50:14.350	0,558	-0,428	1,308	33,997	9,460	29,297	54,679	-42,248	-109,276	-48,158	62,258	41,300	37,36															
02:54:22.990	COM3_115200	2000-0-0 4:45:40.885	0,766	0,420	1,334	-27,710	-1,221	-33,447	-33,140	-52,289	-104,469	11,400	67,658	-52,142	39,85															
02:54:22.990	COM8_115200	2000-0-0 4:50:14.370	0,563	-0,474	1,307	33,020	5,493	28,992	54,003	-42,501	-108,380	-48,158	62,258	41,300	37,42															
02:54:23.006	COM3_115200	2000-0-0 4:45:40.905	0,774	0,422	1,342	-23,254	10,193	-36,072	-32,031	-52,256	-105,881	11,400	67,658	-52,142	39,82															
02:54:23.021	COM8_115200	2000-0-0 4:50:14.390	0,560	-0,479	1,289	32,959	-3,174	27,405	53,416	-42,819	-107,600	-48,158	62,258	41,300	37,33															
02:54:23.021	COM3_115200	2000-0-0 4:45:40.925	0,692	0,423	1,330	-19,287	9,644	-33,447	-30,866	-52,213	-107,271	11,400	67,658	-52,142	39,82															
02:54:23.037	COM8_115200	2000-0-0 4:50:14.410	0,626	-0,469	1,248	31,372	-11,902	24,536	52,982	-43,204	-107,095	-48,158	62,258	41,300	37,33															
02:54:23.053	COM3_115200	2000-0-0 4:45:40.945	0,732	0,454	1,371	-17,578	-0,854	-27,344	-29,784	-52,196	-108,474	11,400	67,658	-52,142	39,63															
02:54:23.084	COM8_115200	2000-0-0 4:50:14.430	0,697	-0,469	1,240	27,039	-13,672	22,217	52,559	-43,599	-106,710	-48,158	62,258	41,300	37,23															
02:54:23.084	COM8_115200	2000-0-0 4:50:14.450	0,743	-0,446	1,201	21,790	-14,099	18,860	52,053	-43,967	-106,348	-48,158	62,258	41,300	37,39															
02:54:23.084	COM3_115200	2000-0-0 4:45:40.965	0,746	0,500	1,379	-12,268	-2,258	-26,855	-28,779	-52,218	-109,484	11,400	67,658	-52,142	39,85															
02:54:23.084	COM3_115200	2000-0-0 4:45:40.985	0,669	0,480	1,412	-10,742	-5,066	-25,146	-27,817	-52,295	-110,385	11,400	67,658	-52,142	39,85															
02:54:23.115	COM8_115200	2000-0-0 4:50:14.470	0,682	-0,479	1,225	16,479	-5,005	17,517	51,400	-44,225	-105,919	-48,158	62,258	41,300	37,42															
02:54:23.115	COM3_115200	2000-0-0 4:45:41.005	0,593	0,452	1,477	-8,362	-16,724	-26,611	-26,862	-52,471	-111,242	11,400	67,658	-52,142	39,73															
02:54:23.115	COM8_115200	2000-0-0 4:50:14.490	0,573	-0,476	1,273	14,404	-2,747	19,775	50,587	-44,434	-105,359	-48,158	62,258	41,300	37,33															
02:54:23.131	COM3_115200	2000-0-0 4:45:41.025	0,575	0,505	1,490	-12,817	-26,306	-27,222	-25,988	-52,839	-112,011	11,400	67,658	-52,142	39,92															
02:54:23.146	COM8_115200	2000-0-0 4:50:14.510	0,506	-0,505	1,315	10,742	5,554	18,127	49,631	-44,561	-104,683	-48,158	62,258	41,300	37,36															
02:54:23.146	COM3_115200	2000-0-0 4:45:41.045	0,579	0,551	1,514	-14,771	-14,648	-29,053	-25,164	-53,141	-112,813	11,400	67,658	-52,142	39,66															
02:54:23.146	COM8_115200	2000-0-0 4:50:14.530	0,450	-0,526	1,391	11,414	11,780	18,616	48,549	-44,555	-103,854	-48,158	62,258	41,300	37,49															
02:54:23.162	COM3_115200	2000-0-0 4:45:41.065	0,539	0,532	1,457	-17,212	-5,737	-33,325	-24,159	-53,256	-113,912	11,400	67,658	-52,142	39,63															
02:54:23.178	COM8_115200	2000-0-0 4:50:14.550	0,448	-0,500	1,420	11,658	14,648	20,264	47,406	-44,506	-102,876	-48,158	62,258	41,300	37,27															
02:54:23.193	COM3_115200	2000-0-0 4:45:41.085	0,538	0,505	1,425	-19,226	-5,920	-33,875	-23,044	-53,262	-115,214	11,400	67,658	-52,142	39,73															
02:54:23.209	COM8_115200	2000-0-0 4:50:14.570	0,461	-0,539	1,412	13,794	16,785	20,508	46,230	-44,407	-101,838	-48,158	62,258	41,300	37,33															
02:54:23.209	COM8_115200	2000-0-0 4:50:14.590	0,493	-0,522	1,375	13,733	16,846	18,616	45,104	-44,258	-100,816	-48,158	62,258	41,300	37,39															
02:54:23.225	COM3_115200	2000-0-0 4:45:41.105	0,622	0,548	1,368	-18,738	-9,583	-31,677	-22,039	-53,317	-116,373	11,400	67,658	-52,142	39,76															
02:54:23.225	COM3_115200	2000-0-0 4:45:41.125	0,702	0,548	1,347	-19,531	-3,662	-28,442	-21,121	-53,361	-117,449	11,400	67,658	-52,142	39,88															
02:54:23.240	COM8_115200	2000-0-0 4:50:14.610	0,513	-0,550	1,343	14,343	12,573	18,311	44,044	-44,105	-99,882	-48,158	62,258	41,300	37,39															
02:54:23.256	COM3_115200	2000-0-0 4:45:41.145	0,720	0,549	1,352	-17,395	-1,038	-28,137	-20,149	-53,251	-118,564	11,400	67,658	-52,142	39,82															
02:54:23.256	COM8_115200	2000-0-0 4:50:14.630	0,563	-0,535	1,330	14,038	5,676	16,602	43,077	-44,011	-99,075	-48,158	62,258	41,300	37,42															
02:54:23.271	COM3_115200	2000-0-0 4:45:41.165	0,682	0,539	1,331	-11,902	-2,563	-20,203	-19,248	-53,124	-119,504	11,400	67,658	-52,142	39,73															
02:54:23.287	COM8_115200	2000-0-0 4:50:14.650	0,560	-0,543	1,331	13,123	0,244	15,564	42,226	-43,995	-98,432	-48,158	62,258	41,300	37,33															
02:54:23.318	COM8_115200	2000-0-0 4:50:14.670	0,551	-0,560	1,337	10,803	-2,869	13,489	41,424	-43,989	-97,910	-48,158	62,258	41,300	37,36															
02:54:23.318	COM8_115200	2000-0-0 4:50:14.690	0,549	-0,579	1,357	8,850	-3,418	13,000	40,616	-44,000	-97,438	-48,158	62,258	41,300	37,36															
02:54:23.318	COM3_115200	2000-0-0 4:45:41.185	0,676	0,593	1,372	-7,751	-4,456	-16,541	-18,402	-52,971	-120,240	11,400	67,658	-52,142	39,73															
02:54:23.318	COM3_115200	2000-0-0 4:45:41.205	0,624	0,578	1,404	-6,775	0,549	-16,846	-17,518	-52,789	-120,965	11,400	67,658	-52,142	39,76															
02:54:23.334	COM3_115200	2000-0-0 4:45:41.225	0,583	0,584	1,429	-6,042	2,441	-13,672	-16,672	-52,537	-121,630	11,400	67,658	-52,142	39,82															
02:54:23.334	COM8_115200	2000-0-0 4:50:14.710	0,524	-0,572	1,380	9,705	-2,930	13,672	39,787	-44,011	-96,932	-48,158	62,258	41,300	37,42															
02:54:23.350	COM3_115200	2000-0-0 4:45:41.245	0,576	0,585	1,404	-6,226	2,258	-15,076	-15,815	-52,245	-122,327	11,400	67,658	-52,142	39,73															
02:54:23.350	COM8_115200	2000-0-0 4:50:14.730	0,541	-0,588	1,385	8,118	0,732	11,230	38,952	-43,978	-96,432	-48,158	62,258	41,300	37,30															
02:54:23.365	COM3_115200	2000-0-0 4:45:41.265	0,575	0,582	1,376	-4,761	8,728	-11,963	-15,002	-51,872	-122,948	11,400	67,658	-52,142	39,82															
02:54:23.381	COM8_115200	2000-0-0 4:50:14.750	0,562	-0,576	1,405	8,972	5,127	9,277	38,117	-43,813	-95,911	-48,158	62,258	41,300	37,23															
02:54:23.396	COM3_115200	2000-0-0 4:45:41.285	0,611	0,604	1,379	-1,709	8,728	-11,169	-14,161	-51,405	-123,563	11,400	67,658	-52,142	39,70															
02:54:23.396	COM8_115200	2000-0-0 4:50:14.770	0,576	-0,577	1,393	7,813	13,184	8,362	37,216	-43,539	-95,306	-48,158	62,258	41,300	37,39															
02:54:23.412	COM3_115200	2000-0-0 4:45:41.305	0,617	0,572	1,407	-2,258	5,310	-15,564	-13,277	-51,026	-124,195	11,400	67,658	-52,142	39,82															
02:54:23.412	COM8_115200	2000-0-0 4:50:14.790	0,545	-0,569	1,374	5,249	15,259	7,813	36,233	-43,176	-94,625	-48,158	62,258	41,300	37,39															
02:54:23.475	COM8_115200	2000-0-0 4:50:14.810	0,488	-0,559	1,352	1,465	9,521	2,380	35,316	-42,814	-94,120	-48,158	62,258	41,300	37,42															
02:54:23.475	COM8_115200	2000-0-0 4:50:14.830	0,489	-0,573	1,371	1,404	1,770	0,427	34,508	-42,517	-93,823	-48,158	62,258	41,300	37,33															
02:54:23.475	COM8_115200	2000-0-0 4:50:14.850	0,497	-0,576	1,395	2,014	0,000	1,526	33,766	-42,292	-93,609	-48,158	62,258	41,300	37,33															
02:54:23.475	COM3_115200	2000-0-0 4:45:41.325	0,630	0,521	1,406	-1,343	2,991	-5,310	-12,579	-50,663	-124,651	11,400	67,658	-52,142	39,76															
02:54:23.475	COM3_115200	2000-0-0 4:45:41.345	0,612	0,602	1,454	-0,671	5,615	-1,465	-11,986	-50,257	-124,898	11,400	67,658	-52,142	39,76															
02:54:23.475	COM3_115200	2000-0-0 4:45:41.365	0,587	0,585	1,455	-2,197	11,475	-5,066	-11,376	-49,741	-125,189	11,400	67,658	-52,142	39,79															
02:54:23.490	COM3_115200	2000-0-0 4:45:41.385	0,542	0,588	1,464	-2,563	7,996	-2,686	-10,805	-49,257	-125,480	11,400	67,658	-52,142	39,85															
02:54:23.490	COM8_115200	2000-0-0 4:50:14.870	0,504	-0,564	1,410	2,869	2,747	1,221	33,025	-42,045	-93,345	-48,158	62,258	41,300	37,30															
02:54:23.506	COM3_115200	2000-0-0 4:45:41.405	0,578	0,595	1,445	-1,526	6,592	-5,066	-10,250	-48,796	-125,744	11,400	67,658	-52,142	39,82															
02:54:23.521	COM8_115200	2000-0-0 4:50:14.890	0,505	-0,576	1,407	4,822	6,714	0,305	32,294	-41,732	-93,065	-48,158	62,258	41,300	37,46															
02:54:23.521	COM3_115200	2000-0-0 4:45:41.425	0,598	0,593	1,442	-0,183	12,268	-5,127	-9,651	-48,301	-126,046	11,400	67,658	-52,142	39,79															
02:54:23.537	COM8_115200	2000-0-0 4:50:14.910	0,510	-0,572	1,403	4,761	6,104	-0,061	31,602	-41,391	-92,785	-48,158	62,258	41,300	37,30															
02:54:23.553	COM3_115200	2000-0-0 4:45:41.445	0,579	0,561	1,454	1,953	9,338	-5,066	-9,020	-47,796	-126,370	11,400	67,658	-52,142	39,76															
02:54:23.568	COM8_115200	2000-0-0 4:50:14.930	0,520	-0,590	1,389	4,272	5,371	0,977	30,910	-41,061	-92,521	-48,158	62,258	41,300	37,36															
02:54:23.568	COM3_115200	2000-0-0 4:45:41.465	0,590	0,595	1,440	0,916	8,728	-3,235	-8,448	-47,324	-126,595	11,400	67,658	-52,142	39,76															
02:54:23.568	COM8_115200	2000-0-0 4:50:14.950	0,529	-0,582	1,380	2,686	0,061	2,014	30,223	-40,814	-92,285	-48,158	62,258	41,300	37,39															
02:54:23.584	COM3_115200	2000-0-0 4:45:41.485	0,569	0,609	1,433	1,587	8,545	-5,737	-7,866	-46,846	-126,832	11,400	67,658	-52,142	39,82															
02:54:23.599	COM8_115200	2000-0-0 4:50:14.970	0,551	-0,591	1,380	2,014	0,183	1,282	29,542	-40,611	-92,093	-48,158	62,258	41,300	37,30															
02:54:23.615	COM3_115200	2000-0-0 4:45:41.505	0,558	0,604	1,454	1,160	2,380	-6,775	-7,278	-46,478	-127,101	11,400	67,658	-52,142	39,73															
02:54:23.615	COM8_115200	2000-0-0 4:50:14.990	0,546	-0,581	1,375	0,610	1,892	-0,244	28,872	-40,369	-91,917	-48,158	62,258	41,300	37,49															
02:54:23.650	COM3_115200	2000-0-0 4:45:41.525	0,580	0,586	1,451	0,977	0,977	-6,348	-6,707	-46,154	-127,354	11,400	67,658	-52,142	39,76															
02:54:23.654	COM8_115200	2000-0-0 4:50:15.010	0,542	-0,585	1,380	-0,549	3,418	-1,648	28,191	-40,084	-91,763	-48,158	62,258	41,300	37,46															
02:54:23.662	COM8_115200	2000-0-0 4:50:15.030	0,506	-0,588	1,410	-0,244	3,601	0,854	27,488	-39,792	-91,588	-48,158	62,258	41,300	37,39															
02:54:23.666	COM3_115200	2000-0-0 4:45:41.545	0,542	0,585	1,461	-1,526	1,221	-6,409	-6,191	-45,835	-127,584	11,400	67,658	-52,142	39,73															
02:54:23.676	COM3_115200	2000-0-0 4:45:41.565	0,556	0,602	1,435	-0,488	-0,549	-3,906	-5,735	-45,549	-127,760	11,400	67,658	-52,142	39,76															
02:54:23.680	COM8_115200	2000-0-0 4:50:15.050	0,516	-0,581	1,425	0,000	2,075	1,709	26,790	-39,551	-91,384	-48,158	62,258	41,300	37,30															
02:54:23.680	COM3_115200	2000-0-0 4:45:41.585	0,558	0,626	1,437	-1,465	0,122	-7,263	-5,257	-45,264	-127,969	11,400	67,658	-52,142	39,76															
02:54:23.712	COM3_115200	2000-0-0 4:45:41.605	0,600	0,606	1,421	-1,343	7,813	-6,653	-4,768	-44,857	-128,205	11,400	67,658	-52,142	39,79															
02:54:23.712	COM8_115200	2000-0-0 4:50:15.070	0,526	-0,576	1,416	1,343	4,272	0,671	26,120	-39,271	-91,192	-48,158	62,258	41,300	37,39															
02:54:23.727	COM8_115200	2000-0-0 4:50:15.090	0,540	-0,599	1,395	0,854	4,639	0,610	25,466	-38,979	-91,016	-48,158	62,258	41,300	37,49															
02:54:23.727	COM3_115200	2000-0-0 4:45:41.625	0,591	0,603	1,414	-3,418	10,315	-5,920	-4,296	-44,379	-128,447	11,400	67,658	-52,142	39,79															
02:54:23.727	COM8_115200	2000-0-0 4:50:15.110	0,532	-0,583	1,405	2,014	1,526	1,648	24,829	-38,716	-90,835	-48,158	62,258	41,300	37,33															
02:54:23.743	COM3_115200	2000-0-0 4:45:41.645	0,580	0,623	1,417	-0,488	-0,305	-4,150	-3,862	-44,017	-128,584	11,400	67,658	-52,142	39,82															
02:54:23.759	COM8_115200	2000-0-0 4:50:15.130	0,522	-0,586	1,405	3,296	-1,221	0,854	24,247	-38,518	-90,698	-48,158	62,258	41,300	37,30															
02:54:23.774	COM3_115200	2000-0-0 4:45:41.665	0,607	0,599	1,428	-0,366	-2,441	-2,625	-3,472	-43,770	-128,650	11,400	67,658	-52,142	39,76															
02:54:23.790	COM8_115200	2000-0-0 4:50:15.150	0,506	-0,594	1,419	4,639	-9,888	4,211	23,725	-38,452	-90,599	-48,158	62,258	41,300	37,36															
02:54:23.790	COM3_115200	2000-0-0 4:45:41.685	0,590	0,624	1,442	4,089	3,113	-0,244	-3,049	-43,467	-128,683	11,400	67,658	-52,142	39,79															
02:54:23.837	COM8_115200	2000-0-0 4:50:15.170	0,528	-0,583	1,418	3,296	-8,484	2,808	23,209	-38,452	-90,500	-48,158	62,258	41,300	37,46															
02:54:23.837	COM8_115200	2000-0-0 4:50:15.190	0,525	-0,584	1,404	1,526	0,305	0,244	22,670	-38,293	-90,406	-48,158	62,258	41,300	37,36															
02:54:23.837	COM8_115200	2000-0-0 4:50:15.210	0,482	-0,588	1,396	-0,854	0,305	-2,625	22,099	-38,046	-90,341	-48,158	62,258	41,300	37,30															
02:54:23.837	COM3_115200	2000-0-0 4:45:41.705	0,587	0,616	1,463	5,127	3,723	0,977	-2,626	-43,116	-128,694	11,400	67,658	-52,142	39,76															
02:54:23.837	COM3_115200	2000-0-0 4:45:41.725	0,615	0,592	1,457	3,723	8,972	1,709	-2,225	-42,704	-128,683	11,400	67,658	-52,142	39,85															
02:54:23.852	COM3_115200	2000-0-0 4:45:41.745	0,598	0,585	1,453	5,432	9,583	3,967	-1,851	-42,259	-128,633	11,400	67,658	-52,142	39,70															
02:54:23.852	COM8_115200	2000-0-0 4:50:15.230	0,528	-0,593	1,404	-1,831	-0,793	-5,005	21,550	-37,815	-90,341	-48,158	62,258	41,300	37,39															
02:54:23.875	COM3_115200	2000-0-0 4:45:41.765	0,618	0,602	1,449	5,920	8,606	3,967	-1,494	-41,825	-128,529	11,400	67,658	-52,142	39,73															
02:54:23.881	COM8_115200	2000-0-0 4:50:15.250	0,524	-0,583	1,410	-2,869	-0,366	-5,981	21,006	-37,568	-90,374	-48,158	62,258	41,300	37,23															
02:54:23.897	COM3_115200	2000-0-0 4:45:41.785	0,604	0,585	1,445	7,751	10,986	3,723	-1,099	-41,364	-128,441	11,400	67,658	-52,142	39,79															
02:54:23.897	COM8_115200	2000-0-0 4:50:15.270	0,521	-0,585	1,413	-3,601	-1,770	-7,141	20,479	-37,332	-90,456	-48,158	62,258	41,300	37,39															
02:54:23.913	COM3_115200	2000-0-0 4:45:41.805	0,589	0,583	1,447	7,751	9,583	3,967	-0,714	-40,913	-128,342	11,400	67,658	-52,142	39,70															
02:54:23.928	COM8_115200	2000-0-0 4:50:15.290	0,522	-0,579	1,397	-4,211	-0,488	-8,179	19,968	-37,079	-90,566	-48,158	62,258	41,300	37,27															
02:54:23.944	COM8_115200	2000-0-0 4:50:15.310	0,519	-0,586	1,404	-3,174	-0,488	-8,240	19,468	-36,826	-90,687	-48,158	62,258	41,300	37,20															
02:54:23.959	COM8_115200	2000-0-0 4:50:15.330	0,525	-0,582	1,395	-2,625	0,244	-7,385	18,979	-36,568	-90,786	-48,158	62,258	41,300	37,39															
02:54:23.959	COM3_115200	2000-0-0 4:45:41.825	0,568	0,570	1,466	6,165	10,071	3,113	-0,352	-40,468	-128,238	11,400	67,658	-52,142	39,73															
02:54:23.959	COM3_115200	2000-0-0 4:45:41.845	0,570	0,583	1,465	5,554	6,287	2,319	0,000	-40,062	-128,156	11,400	67,658	-52,142	39,82															
02:54:23.975	COM3_115200	2000-0-0 4:45:41.865	0,586	0,596	1,461	3,296	7,019	-0,122	0,346	-39,694	-128,123	11,400	67,658	-52,142	39,82															
02:54:23.975	COM8_115200	2000-0-0 4:50:15.350	0,531	-0,570	1,395	-1,892	1,160	-6,409	18,501	-36,304	-90,868	-48,158	62,258	41,300	37,36															
02:54:23.991	COM3_115200	2000-0-0 4:45:41.885	0,595	0,583	1,449	2,563	6,897	-1,465	0,703	-39,320	-128,134	11,400	67,658	-52,142	39,66															
02:54:23.991	COM8_115200	2000-0-0 4:50:15.370	0,521	-0,572	1,391	-2,502	1,221	-6,653	18,018	-36,046	-90,945	-48,158	62,258	41,300	37,39															
02:54:24.006	COM3_115200	2000-0-0 4:45:41.905	0,575	0,565	1,459	2,747	5,920	-0,061	1,022	-38,958	-128,134	11,400	67,658	-52,142	39,63															
02:54:24.022	COM8_115200	2000-0-0 4:50:15.390	0,526	-0,576	1,405	-2,502	-1,465	-5,432	17,534	-35,826	-91,016	-48,158	62,258	41,300	37,33															
02:54:24.038	COM8_115200	2000-0-0 4:50:15.410	0,514	-0,571	1,417	-1,404	-1,160	-3,540	17,051	-35,640	-91,060	-48,158	62,258	41,300	37,42															
02:54:24.053	COM3_115200	2000-0-0 4:45:41.925	0,569	0,598	1,461	3,784	0,854	-0,671	1,362	-38,672	-128,128	11,400	67,658	-52,142	39,66															
02:54:24.053	COM3_115200	2000-0-0 4:45:41.945	0,580	0,601	1,458	3,296	2,319	-2,563	1,719	-38,419	-128,145	11,400	67,658	-52,142	39,73															
02:54:24.053	COM8_115200	2000-0-0 4:50:15.430	0,506	-0,573	1,416	0,000	-1,160	-1,831	16,578	-35,453	-91,071	-48,158	62,258	41,300	37,39															
02:54:24.069	COM3_115200	2000-0-0 4:45:41.965	0,583	0,595	1,463	4,211	3,418	-3,235	2,098	-38,134	-128,205	11,400	67,658	-52,142	39,73															
02:54:24.085	COM8_115200	2000-0-0 4:50:15.450	0,510	-0,563	1,404	-0,488	-3,052	-0,305	16,095	-35,305	-91,038	-48,158	62,258	41,300	37,39															
02:54:24.100	COM3_115200	2000-0-0 4:45:41.985	0,582	0,597	1,469	3,601	4,456	-2,869	2,483	-37,831	-128,260	11,400	67,658	-52,142	39,66															
02:54:24.100	COM8_115200	2000-0-0 4:50:15.470	0,523	-0,571	1,387	-0,305	-2,075	1,160	15,601	-35,162	-90,978	-48,158	62,258	41,300	37,42															
02:54:24.116	COM3_115200	2000-0-0 4:45:42.005	0,598	0,597	1,454	2,991	2,808	-2,747	2,840	-37,557	-128,320	11,400	67,658	-52,142	39,92															
02:54:24.131	COM8_115200	2000-0-0 4:50:15.490	0,515	-0,589	1,378	0,061	-3,418	3,601	15,095	-35,041	-90,884	-48,158	62,258	41,300	37,46															
02:54:24.131	COM8_115200	2000-0-0 4:50:15.510	0,561	-0,580	1,359	0,549	-3,540	3,662	14,590	-34,942	-90,758	-48,158	62,258	41,300	37,36															
02:54:24.147	COM3_115200	2000-0-0 4:45:42.025	0,617	0,630	1,441	1,770	2,014	-3,601	3,170	-37,304	-128,370	11,400	67,658	-52,142	39,79															
02:54:24.147	COM3_115200	2000-0-0 4:45:42.045	0,639	0,604	1,430	0,000	1,404	-4,089	3,488	-37,068	-128,447	11,400	67,658	-52,142	39,79															
02:54:24.194	COM8_115200	2000-0-0 4:50:15.530	0,557	-0,586	1,355	-0,732	-4,395	1,465	14,079	-34,843	-90,665	-48,158	62,258	41,300	37,39															
02:54:24.194	COM8_115200	2000-0-0 4:50:15.550	0,584	-0,579	1,357	-0,671	-7,507	-1,587	13,634	-34,794	-90,665	-48,158	62,258	41,300	37,42															
02:54:24.194	COM8_115200	2000-0-0 4:50:15.570	0,568	-0,579	1,355	-2,930	-6,836	-5,615	13,211	-34,744	-90,753	-48,158	62,258	41,300	37,33															
02:54:24.194	COM3_115200	2000-0-0 4:45:42.065	0,648	0,589	1,426	2,197	0,671	0,000	3,763	-36,859	-128,447	11,400	67,658	-52,142	39,85															
02:54:24.194	COM3_115200	2000-0-0 4:45:42.085	0,634	0,600	1,433	4,456	-0,244	3,479	4,032	-36,650	-128,359	11,400	67,658	-52,142	39,92															
02:54:24.225	COM3_115200	2000-0-0 4:45:42.105	0,619	0,609	1,460	6,592	-1,892	5,981	4,307	-36,508	-128,210	11,400	67,658	-52,142	39,79															
02:54:24.225	COM8_115200	2000-0-0 4:50:15.590	0,528	-0,563	1,369	-4,150	-5,676	-8,850	12,805	-34,656	-90,923	-48,158	62,258	41,300	37,42															
02:54:24.225	COM3_115200	2000-0-0 4:45:42.125	0,618	0,602	1,470	7,202	0,122	10,010	4,548	-36,359	-127,980	11,400	67,658	-52,142	39,82															
02:54:24.241	COM8_115200	2000-0-0 4:50:15.610	0,510	-0,562	1,386	-7,568	-3,967	-11,963	12,393	-34,525	-91,159	-48,158	62,258	41,300	37,39															
02:54:24.241	COM3_115200	2000-0-0 4:45:42.145	0,599	0,593	1,472	8,423	4,639	11,658	4,768	-36,145	-127,672	11,400	67,658	-52,142	39,85															
02:54:24.256	COM8_115200	2000-0-0 4:50:15.630	0,526	-0,582	1,382	-10,010	-0,122	-13,672	11,942	-34,327	-91,423	-48,158	62,258	41,300	37,36															
02:54:24.272	COM3_115200	2000-0-0 4:45:42.165	0,608	0,590	1,452	10,620	9,766	15,930	4,955	-35,826	-127,271	11,400	67,658	-52,142	39,70															
02:54:24.272	COM8_115200	2000-0-0 4:50:15.650	0,512	-0,559	1,404	-12,268	3,296	-14,038	11,453	-34,069	-91,697	-48,158	62,258	41,300	37,36															
02:54:24.288	COM3_115200	2000-0-0 4:45:42.185	0,607	0,624	1,440	13,062	10,803	16,479	5,175	-35,475	-126,821	11,400	67,658	-52,142	39,73															
02:54:24.288	COM8_115200	2000-0-0 4:50:15.670	0,535	-0,566	1,399	-14,282	6,104	-16,846	10,959	-33,745	-92,010	-48,158	62,258	41,300	37,30															
02:54:24.303	COM3_115200	2000-0-0 4:45:42.205	0,640	0,595	1,430	14,221	14,343	16,663	5,416	-35,074	-126,365	11,400	67,658	-52,142	39,82															
02:54:24.319	COM8_115200	2000-0-0 4:50:15.690	0,546	-0,563	1,362	-15,808	8,179	-18,677	10,448	-33,354	-92,351	-48,158	62,258	41,300	37,39															
02:54:24.319	COM3_115200	2000-0-0 4:45:42.225	0,656	0,561	1,415	16,113	19,348	20,081	5,663	-34,596	-125,848	11,400	67,658	-52,142	39,79															
02:54:24.334	COM8_115200	2000-0-0 4:50:15.710	0,582	-0,565	1,350	-16,174	7,935	-19,104	9,943	-32,970	-92,736	-48,158	62,258	41,300	37,42															
02:54:24.350	COM3_115200	2000-0-0 4:45:42.245	0,659	0,548	1,405	16,907	22,339	25,574	5,850	-34,063	-125,184	11,400	67,658	-52,142	39,82															
02:54:24.366	COM8_115200	2000-0-0 4:50:15.730	0,596	-0,544	1,355	-15,747	6,348	-19,897	9,454	-32,613	-93,131	-48,158	62,258	41,300	37,33															
02:54:24.366	COM3_115200	2000-0-0 4:45:42.265	0,655	0,572	1,409	17,456	26,733	29,480	5,977	-33,475	-124,393	11,400	67,658	-52,142	39,95															
02:54:24.381	COM8_115200	2000-0-0 4:50:15.750	0,590	-0,539	1,377	-11,963	6,714	-17,639	9,009	-32,294	-93,516	-48,158	62,258	41,300	37,39															
02:54:24.381	COM3_115200	2000-0-0 4:45:42.285	0,612	0,551	1,433	15,503	21,973	25,757	6,119	-32,893	-123,646	11,400	67,658	-52,142	39,73															
02:54:24.397	COM8_115200	2000-0-0 4:50:15.770	0,607	-0,559	1,348	-9,277	10,742	-18,616	8,630	-31,915	-93,895	-48,158	62,258	41,300	37,36															
02:54:24.413	COM3_115200	2000-0-0 4:45:42.305	0,656	0,532	1,442	11,353	16,235	27,405	6,218	-32,476	-122,937	11,400	67,658	-52,142	39,76															
02:54:24.413	COM8_115200	2000-0-0 4:50:15.790	0,589	-0,557	1,325	-3,845	12,329	-17,883	8,322	-31,498	-94,246	-48,158	62,258	41,300	37,36															
02:54:24.428	COM3_115200	2000-0-0 4:45:42.325	0,680	0,501	1,454	7,751	18,372	29,053	6,191	-32,058	-122,179	11,400	67,658	-52,142	39,79															
02:54:24.444	COM8_115200	2000-0-0 4:50:15.810	0,566	-0,503	1,328	-2,808	5,432	-20,142	8,108	-31,152	-94,653	-48,158	62,258	41,300	37,33															
02:54:24.444	COM3_115200	2000-0-0 4:45:42.345	0,625	0,497	1,453	6,775	12,939	26,672	6,163	-31,668	-121,454	11,400	67,658	-52,142	39,85															
02:54:24.459	COM8_115200	2000-0-0 4:50:15.830	0,596	-0,497	1,372	-1,709	3,540	-26,001	7,965	-30,899	-95,169	-48,158	62,258	41,300	37,33															
02:54:24.475	COM3_115200	2000-0-0 4:45:42.365	0,660	0,487	1,461	5,798	-1,343	30,457	6,092	-31,569	-120,723	11,400	67,658	-52,142	39,76															
02:54:24.475	COM8_115200	2000-0-0 4:50:15.850	0,591	-0,481	1,387	-2,625	7,019	-30,640	7,894	-30,591	-95,806	-48,158	62,258	41,300	37,33															
02:54:24.491	COM8_115200	2000-0-0 4:50:15.870	0,551	-0,501	1,393	-4,272	4,700	-32,776	7,822	-30,267	-96,520	-48,158	62,258	41,300	37,30															
02:54:24.491	COM3_115200	2000-0-0 4:45:42.385	0,708	0,483	1,472	4,150	3,235	29,968	5,999	-31,520	-119,982	11,400	67,658	-52,142	39,79															
02:54:24.506	COM3_115200	2000-0-0 4:45:42.405	0,726	0,462	1,469	9,399	12,512	30,640	5,916	-31,289	-119,207	11,400	67,658	-52,142	39,73															
02:54:24.506	COM8_115200	2000-0-0 4:50:15.890	0,543	-0,481	1,416	-3,723	0,427	-30,884	7,745	-30,042	-97,218	-48,158	62,258	41,300	37,30															
02:54:24.522	COM3_115200	2000-0-0 4:45:42.425	0,667	0,469	1,450	11,169	10,681	29,907	5,900	-30,965	-118,416	11,400	67,658	-52,142	39,76															
02:54:24.553	COM8_115200	2000-0-0 4:50:15.910	0,582	-0,463	1,420	-6,104	-4,700	-30,884	7,657	-29,905	-97,927	-48,158	62,258	41,300	37,42															
02:54:24.553	COM8_115200	2000-0-0 4:50:15.930	0,579	-0,484	1,399	-9,216	-5,798	-31,494	7,520	-29,822	-98,641	-48,158	62,258	41,300	37,33															
02:54:24.553	COM3_115200	2000-0-0 4:45:42.445	0,728	0,463	1,461	13,184	2,075	30,396	5,955	-30,833	-117,658	11,400	67,658	-52,142	39,76															
02:54:24.600	COM8_115200	2000-0-0 4:50:15.950	0,553	-0,463	1,399	-10,803	-10,071	-29,480	7,333	-29,795	-99,344	-48,158	62,258	41,300	37,42															
02:54:24.600	COM8_115200	2000-0-0 4:50:15.970	0,590	-0,458	1,371	-14,587	-10,681	-27,832	7,075	-29,817	-100,003	-48,158	62,258	41,300	37,36															
02:54:24.600	COM3_115200	2000-0-0 4:45:42.465	0,785	0,452	1,476	19,653	6,897	29,175	6,075	-30,751	-116,911	11,400	67,658	-52,142	39,79															
02:54:24.600	COM3_115200	2000-0-0 4:45:42.485	0,783	0,479	1,470	22,644	13,550	29,297	6,317	-30,498	-116,169	11,400	67,658	-52,142	39,79															
02:54:24.616	COM3_115200	2000-0-0 4:45:42.505	0,854	0,480	1,448	25,635	22,034	29,358	6,586	-30,130	-115,400	11,400	67,658	-52,142	39,76															
02:54:24.616	COM8_115200	2000-0-0 4:50:15.990	0,575	-0,490	1,342	-15,991	-11,658	-24,170	6,740	-29,883	-100,607	-48,158	62,258	41,300	37,27															
02:54:24.631	COM3_115200	2000-0-0 4:45:42.525	0,796	0,433	1,426	26,611	24,780	25,146	6,899	-29,625	-114,664	11,400	67,658	-52,142	39,70															
02:54:24.631	COM8_115200	2000-0-0 4:50:16.010	0,605	-0,422	1,350	-16,113	-17,944	-22,339	6,394	-30,048	-101,157	-48,158	62,258	41,300	37,33															
02:54:24.665	COM8_115200	2000-0-0 4:50:16.030	0,612	-0,419	1,324	-21,912	-17,822	-24,475	5,982	-30,262	-101,728	-48,158	62,258	41,300	37,46															
02:54:24.667	COM3_115200	2000-0-0 4:45:42.545	0,766	0,391	1,471	33,752	10,620	31,433	7,300	-29,328	-113,939	11,400	67,658	-52,142	39,73															
02:54:24.680	COM3_115200	2000-0-0 4:45:42.565	0,831	0,402	1,486	41,260	6,836	28,259	7,844	-29,218	-113,170	11,400	67,658	-52,142	39,73															
02:54:24.687	COM8_115200	2000-0-0 4:50:16.050	0,561	-0,425	1,309	-24,841	-17,517	-24,963	5,521	-30,465	-102,338	-48,158	62,258	41,300	37,36															
02:54:24.692	COM3_115200	2000-0-0 4:45:42.585	0,789	0,389	1,477	43,945	6,409	27,283	8,509	-29,136	-112,495	11,400	67,658	-52,142	39,79															
02:54:24.701	COM8_115200	2000-0-0 4:50:16.070	0,595	-0,374	1,298	-25,879	-22,827	-25,024	5,037	-30,707	-102,931	-48,158	62,258	41,300	37,36															
02:54:24.713	COM3_115200	2000-0-0 4:45:42.605	0,831	0,356	1,513	47,607	14,587	31,311	9,163	-29,004	-111,742	11,400	67,658	-52,142	39,70															
02:54:24.729	COM8_115200	2000-0-0 4:50:16.090	0,645	-0,411	1,265	-28,748	-20,874	-26,428	4,521	-31,014	-103,546	-48,158	62,258	41,300	37,46															
02:54:24.729	COM3_115200	2000-0-0 4:45:42.625	0,706	0,351	1,483	50,354	15,198	25,757	9,915	-28,718	-111,000	11,400	67,658	-52,142	39,88															
02:54:24.745	COM8_115200	2000-0-0 4:50:16.110	0,625	-0,375	1,272	-29,175	-17,334	-24,780	3,994	-31,251	-104,150	-48,158	62,258	41,300	37,30															
02:54:24.745	COM3_115200	2000-0-0 4:45:42.645	0,625	0,312	1,487	44,067	-5,981	25,024	10,613	-28,757	-110,391	11,400	67,658	-52,142	39,79															
02:54:24.760	COM8_115200	2000-0-0 4:50:16.130	0,615	-0,362	1,277	-29,480	-18,372	-25,574	3,461	-31,481	-104,738	-48,158	62,258	41,300	37,42															
02:54:24.760	COM3_115200	2000-0-0 4:45:42.665	0,733	0,289	1,468	34,546	-13,428	28,320	11,157	-29,042	-109,808	11,400	67,658	-52,142	39,70															
02:54:24.776	COM8_115200	2000-0-0 4:50:16.150	0,695	-0,324	1,286	-27,588	-12,268	-29,297	2,972	-31,657	-105,353	-48,158	62,258	41,300	37,33															
02:54:24.776	COM3_115200	2000-0-0 4:45:42.685	0,765	0,337	1,461	32,593	0,000	34,668	11,508	-29,240	-109,061	11,400	67,658	-52,142	39,85															
02:54:24.791	COM8_115200	2000-0-0 4:50:16.170	0,697	-0,313	1,277	-28,381	1,221	-34,485	2,571	-31,619	-106,095	-48,158	62,258	41,300	37,36															
02:54:24.807	COM3_115200	2000-0-0 4:45:42.705	0,707	0,319	1,398	25,879	3,418	31,250	11,733	-29,251	-108,259	11,400	67,658	-52,142	39,76															
02:54:24.823	COM8_115200	2000-0-0 4:50:16.190	0,659	-0,318	1,244	-24,658	6,104	-39,124	2,274	-31,426	-106,952	-48,158	62,258	41,300	37,30															
02:54:24.838	COM3_115200	2000-0-0 4:45:42.725	0,676	0,250	1,410	15,747	-11,780	33,630	11,810	-29,438	-107,523	11,400	67,658	-52,142	39,79															
02:54:24.838	COM8_115200	2000-0-0 4:50:16.210	0,698	-0,302	1,253	-22,156	10,315	-43,274	2,093	-31,146	-107,908	-48,158	62,258	41,300	37,46															
02:54:24.838	COM3_115200	2000-0-0 4:45:42.745	0,845	0,216	1,396	13,672	-19,531	38,879	11,733	-29,905	-106,749	11,400	67,658	-52,142	39,76															
02:54:24.854	COM8_115200	2000-0-0 4:50:16.230	0,655	-0,267	1,259	-21,240	4,944	-45,959	1,994	-30,921	-108,907	-48,158	62,258	41,300	37,23															
02:54:24.870	COM3_115200	2000-0-0 4:45:42.765	0,945	0,235	1,330	13,733	-11,780	44,983	11,563	-30,300	-105,798	11,400	67,658	-52,142	39,79															
02:54:24.892	COM8_115200	2000-0-0 4:50:16.250	0,713	-0,271	1,227	-20,996	-1,099	-52,795	1,967	-30,817	-110,067	-48,158	62,258	41,300	37,27															
02:54:24.897	COM3_115200	2000-0-0 4:45:42.785	0,817	0,201	1,258	13,611	-17,822	47,974	11,316	-30,778	-104,766	11,400	67,658	-52,142	39,76															
02:54:24.913	COM8_115200	2000-0-0 4:50:16.270	0,696	-0,286	1,246	-18,250	-8,423	-54,077	2,016	-30,833	-111,308	-48,158	62,258	41,300	37,33															
02:54:24.913	COM8_115200	2000-0-0 4:50:16.290	0,677	-0,245	1,227	-18,188	-14,038	-54,810	2,115	-30,987	-112,560	-48,158	62,258	41,300	37,30															
02:54:24.913	COM3_115200	2000-0-0 4:45:42.805	0,783	0,132	1,319	17,700	-36,377	50,781	11,096	-31,481	-103,711	11,400	67,658	-52,142	39,88															
02:54:24.944	COM8_115200	2000-0-0 4:50:16.310	0,704	-0,228	1,248	-19,836	-10,376	-57,495	2,203	-31,157	-113,846	-48,158	62,258	41,300	37,23															
02:54:24.944	COM3_115200	2000-0-0 4:45:42.825	0,879	0,151	1,351	23,987	-46,448	55,420	10,975	-32,509	-102,640	11,400	67,658	-52,142	39,82															
02:54:24.944	COM3_115200	2000-0-0 4:45:42.845	0,857	0,244	1,362	25,940	-37,231	62,012	10,822	-33,541	-101,382	11,400	67,658	-52,142	39,66															
02:54:24.960	COM8_115200	2000-0-0 4:50:16.330	0,674	-0,215	1,252	-19,531	-2,808	-58,594	2,351	-31,157	-115,219	-48,158	62,258	41,300	37,36															
02:54:24.960	COM3_115200	2000-0-0 4:45:42.865	0,868	0,229	1,397	22,095	-17,578	60,059	10,530	-34,228	-100,014	11,400	67,658	-52,142	39,85															
02:54:24.991	COM3_115200	2000-0-0 4:45:42.885	0,770	0,179	1,410	20,325	-2,502	59,509	10,157	-34,525	-98,591	11,400	67,658	-52,142	39,73															
02:54:25.007	COM8_115200	2000-0-0 4:50:16.350	0,614	-0,216	1,214	-18,311	-2,014	-59,143	2,505	-31,113	-116,570	-48,158	62,258	41,300	37,30															
02:54:25.007	COM8_115200	2000-0-0 4:50:16.370	0,637	-0,178	1,205	-22,034	-1,465	-60,059	2,648	-31,064	-117,938	-48,158	62,258	41,300	37,36															
02:54:25.007	COM8_115200	2000-0-0 4:50:16.390	0,644	-0,178	1,233	-24,475	6,775	-62,683	2,730	-30,877	-119,344	-48,158	62,258	41,300	37,39															
02:54:25.023	COM3_115200	2000-0-0 4:45:42.905	0,708	0,105	1,362	16,235	-0,305	63,477	9,635	-34,700	-97,053	11,400	67,658	-52,142	39,85															
02:54:25.023	COM3_115200	2000-0-0 4:45:42.925	0,783	0,083	1,370	17,883	-3,479	64,209	9,102	-34,909	-95,526	11,400	67,658	-52,142	39,82															
02:54:25.038	COM8_115200	2000-0-0 4:50:16.410	0,681	-0,136	1,241	-28,748	9,949	-63,049	2,774	-30,591	-120,773	-48,158	62,258	41,300	37,39															
02:54:25.054	COM3_115200	2000-0-0 4:45:42.945	0,811	0,122	1,382	19,165	1,587	72,205	8,487	-35,052	-93,807	11,400	67,658	-52,142	39,70															
02:54:25.054	COM8_115200	2000-0-0 4:50:16.430	0,590	-0,129	1,263	-32,349	5,554	-57,922	2,708	-30,377	-122,151	-48,158	62,258	41,300	37,33															
02:54:25.069	COM3_115200	2000-0-0 4:45:42.965	0,746	0,091	1,368	18,188	8,057	67,871	7,861	-35,079	-92,065	11,400	67,658	-52,142	39,76															
02:54:25.069	COM8_115200	2000-0-0 4:50:16.450	0,686	-0,081	1,253	-36,316	0,671	-60,181	2,565	-30,256	-123,475	-48,158	62,258	41,300	37,46															
02:54:25.085	COM3_115200	2000-0-0 4:45:42.985	0,832	0,008	1,318	20,752	9,277	71,106	7,245	-35,035	-90,335	11,400	67,658	-52,142	39,70															
02:54:25.101	COM8_115200	2000-0-0 4:50:16.470	0,739	-0,089	1,263	-36,133	9,460	-62,134	2,417	-30,064	-124,876	-48,158	62,258	41,300	37,46															
02:54:25.101	COM3_115200	2000-0-0 4:45:43.005	0,795	0,021	1,348	26,733	12,207	74,890	6,663	-34,953	-88,478	11,400	67,658	-52,142	39,79															
02:54:25.116	COM8_115200	2000-0-0 4:50:16.490	0,660	-0,077	1,249	-40,649	6,775	-61,523	2,241	-29,811	-126,288	-48,158	62,258	41,300	37,33															
02:54:25.132	COM3_115200	2000-0-0 4:45:43.025	0,770	-0,019	1,354	28,137	12,207	70,068	6,169	-34,783	-86,671	11,400	67,658	-52,142	39,85															
02:54:25.132	COM8_115200	2000-0-0 4:50:16.510	0,687	0,002	1,275	-44,678	1,160	-55,176	1,945	-29,707	-127,584	-48,158	62,258	41,300	37,49															
02:54:25.163	COM3_115200	2000-0-0 4:45:43.045	0,805	-0,056	1,321	31,860	11,475	69,702	5,773	-34,656	-84,946	11,400	67,658	-52,142	39,85															
02:54:25.163	COM3_115200	2000-0-0 4:45:43.065	0,847	-0,079	1,333	38,513	2,258	72,083	5,460	-34,601	-83,194	11,400	67,658	-52,142	39,76															
02:54:25.163	COM8_115200	2000-0-0 4:50:16.530	0,700	-0,001	1,238	-47,729	0,427	-57,434	1,555	-29,652	-128,864	-48,158	62,258	41,300	37,36															
02:54:25.179	COM8_115200	2000-0-0 4:50:16.550	0,729	0,044	1,260	-53,711	-0,977	-58,655	1,132	-29,630	-130,188	-48,158	62,258	41,300	37,46															
02:54:25.179	COM3_115200	2000-0-0 4:45:43.085	0,796	-0,095	1,414	40,344	5,859	69,336	5,219	-34,601	-81,414	11,400	67,658	-52,142	39,88															
02:54:25.194	COM8_115200	2000-0-0 4:50:16.570	0,704	0,045	1,265	-52,673	0,366	-53,650	0,648	-29,581	-131,451	-48,158	62,258	41,300	37,30															
02:54:25.210	COM3_115200	2000-0-0 4:45:43.105	0,700	-0,156	1,424	37,903	2,380	62,866	5,054	-34,552	-79,843	11,400	67,658	-52,142	39,92															
02:54:25.226	COM8_115200	2000-0-0 4:50:16.590	0,658	0,090	1,260	-56,824	-4,944	-47,974	0,082	-29,630	-132,567	-48,158	62,258	41,300	37,30															
02:54:25.241	COM3_115200	2000-0-0 4:45:43.125	0,744	-0,131	1,377	37,659	2,625	68,420	4,834	-34,557	-78,212	11,400	67,658	-52,142	39,66															
02:54:25.241	COM3_115200	2000-0-0 4:45:43.145	0,754	-0,106	1,412	39,795	-2,563	68,665	4,581	-34,645	-76,520	11,400	67,658	-52,142	39,82															
02:54:25.257	COM8_115200	2000-0-0 4:50:16.610	0,668	0,095	1,273	-58,105	-2,319	-52,734	-0,500	-29,713	-133,720	-48,158	62,258	41,300	37,39															
02:54:25.257	COM8_115200	2000-0-0 4:50:16.630	0,616	0,106	1,373	-53,162	-0,732	-50,232	-0,994	-29,734	-134,912	-48,158	62,258	41,300	37,27															
02:54:25.257	COM3_115200	2000-0-0 4:45:43.165	0,649	-0,150	1,471	34,912	7,874	62,683	4,345	-34,601	-74,921	11,400	67,658	-52,142	39,85															
02:54:25.288	COM8_115200	2000-0-0 4:50:16.650	0,563	0,167	1,324	-52,368	-1,343	-44,189	-1,489	-29,740	-135,950	-48,158	62,258	41,300	37,30															
02:54:25.288	COM3_115200	2000-0-0 4:45:43.185	0,690	-0,175	1,397	28,870	20,081	63,232	3,999	-34,321	-73,350	11,400	67,658	-52,142	39,73															
02:54:25.319	COM3_115200	2000-0-0 4:45:43.205	0,723	-0,208	1,407	30,945	12,390	61,829	3,625	-34,091	-71,790	11,400	67,658	-52,142	39,73															
02:54:25.319	COM8_115200	2000-0-0 4:50:16.670	0,645	0,146	1,281	-50,232	2,014	-48,889	-1,939	-29,740	-137,010	-48,158	62,258	41,300	37,39															
02:54:25.319	COM8_115200	2000-0-0 4:50:16.690	0,620	0,189	1,321	-49,255	2,014	-47,974	-2,302	-29,663	-138,109	-48,158	62,258	41,300	37,49															
02:54:25.319	COM3_115200	2000-0-0 4:45:43.225	0,750	-0,283	1,454	29,053	10,681	53,772	3,351	-33,772	-70,378	11,400	67,658	-52,142	39,76															
02:54:25.335	COM8_115200	2000-0-0 4:50:16.710	0,564	0,188	1,379	-48,828	-2,930	-44,678	-2,692	-29,685	-139,142	-48,158	62,258	41,300	37,20															
02:54:25.351	COM3_115200	2000-0-0 4:45:43.245	0,656	-0,344	1,513	29,724	7,874	47,546	3,170	-33,657	-69,159	11,400	67,658	-52,142	39,85															
02:54:25.366	COM8_115200	2000-0-0 4:50:16.730	0,631	0,225	1,312	-47,424	-2,014	-45,959	-3,043	-29,740	-140,153	-48,158	62,258	41,300	37,30															
02:54:25.366	COM3_115200	2000-0-0 4:45:43.265	0,689	-0,322	1,402	27,039	16,174	58,044	2,878	-33,338	-67,830	11,400	67,658	-52,142	39,85															
02:54:25.382	COM8_115200	2000-0-0 4:50:16.750	0,597	0,224	1,350	-44,800	0,854	-42,236	-3,345	-29,724	-141,158	-48,158	62,258	41,300	37,39															
02:54:25.398	COM3_115200	2000-0-0 4:45:43.285	0,723	-0,286	1,448	34,302	5,554	54,565	2,626	-33,212	-66,451	11,400	67,658	-52,142	39,76															
02:54:25.398	COM8_115200	2000-0-0 4:50:16.770	0,616	0,282	1,394	-46,021	-5,493	-41,199	-3,653	-29,740	-142,086	-48,158	62,258	41,300	37,46															
02:54:25.398	COM3_115200	2000-0-0 4:45:43.305	0,696	-0,334	1,495	33,081	8,667	47,241	2,488	-32,992	-65,209	11,400	67,658	-52,142	39,82															
02:54:25.429	COM8_115200	2000-0-0 4:50:16.790	0,609	0,296	1,316	-44,861	-4,272	-33,142	-4,026	-29,833	-142,888	-48,158	62,258	41,300	37,33															
02:54:25.429	COM3_115200	2000-0-0 4:45:43.325	0,769	-0,436	1,404	38,818	-2,441	40,344	2,516	-32,844	-64,215	11,400	67,658	-52,142	39,82															
02:54:25.429	COM8_115200	2000-0-0 4:50:16.810	0,669	0,385	1,239	-48,462	-6,287	-34,058	-4,417	-29,960	-143,635	-48,158	62,258	41,300	37,27															
02:54:25.444	COM3_115200	2000-0-0 4:45:43.345	0,866	-0,479	1,320	46,021	12,878	43,945	2,675	-32,750	-63,204	11,400	67,658	-52,142	39,85															
02:54:25.460	COM8_115200	2000-0-0 4:50:16.830	0,698	0,463	1,275	-55,664	-6,531	-36,072	-4,883	-30,059	-144,421	-48,158	62,258	41,300	37,42															
02:54:25.476	COM3_115200	2000-0-0 4:45:43.365	0,834	-0,611	1,377	58,167	-4,211	41,565	2,961	-32,712	-62,144	11,400	67,658	-52,142	39,85															
02:54:25.476	COM8_115200	2000-0-0 4:50:16.850	0,700	0,436	1,334	-59,631	-14,587	-34,363	-5,438	-30,344	-145,228	-48,158	62,258	41,300	37,33															
02:54:25.476	COM3_115200	2000-0-0 4:45:43.385	0,826	-0,668	1,420	73,303	-11,658	44,250	3,527	-32,816	-61,122	11,400	67,658	-52,142	39,79															
02:54:25.491	COM8_115200	2000-0-0 4:50:16.870	0,721	0,472	1,266	-61,584	-10,376	-33,997	-6,048	-30,630	-145,948	-48,158	62,258	41,300	37,36															
02:54:25.507	COM3_115200	2000-0-0 4:45:43.405	0,779	-0,537	1,462	78,979	-2,747	51,453	4,219	-32,970	-59,958	11,400	67,658	-52,142	39,76															
02:54:25.522	COM8_115200	2000-0-0 4:50:16.890	0,645	0,486	1,241	-64,148	-10,376	-40,588	-6,597	-30,833	-146,805	-48,158	62,258	41,300	37,49															
02:54:25.522	COM3_115200	2000-0-0 4:45:43.425	0,804	-0,503	1,417	75,562	8,057	55,298	4,757	-32,871	-58,640	11,400	67,658	-52,142	39,66															
02:54:25.538	COM8_115200	2000-0-0 4:50:16.910	0,510	0,458	1,339	-67,932	-23,071	-38,025	-7,207	-31,229	-147,662	-48,158	62,258	41,300	37,42															
02:54:25.554	COM3_115200	2000-0-0 4:45:43.445	0,703	-0,517	1,584	79,163	-7,507	53,406	5,361	-32,997	-57,365	11,400	67,658	-52,142	39,73															
02:54:25.554	COM8_115200	2000-0-0 4:50:16.930	0,587	0,490	1,268	-69,946	-23,315	-26,062	-7,976	-31,696	-148,271	-48,158	62,258	41,300	37,33															
02:54:25.569	COM3_115200	2000-0-0 4:45:43.465	0,638	-0,462	1,606	73,181	3,174	46,570	5,916	-33,008	-56,124	11,400	67,658	-52,142	39,85															
02:54:25.569	COM8_115200	2000-0-0 4:50:16.950	0,535	0,509	1,243	-71,045	-15,015	-31,982	-8,734	-32,064	-148,903	-48,158	62,258	41,300	37,42															
02:54:25.585	COM3_115200	2000-0-0 4:45:43.485	0,646	-0,518	1,561	69,824	7,446	63,599	6,284	-32,937	-54,717	11,400	67,658	-52,142	39,85															
02:54:25.601	COM8_115200	2000-0-0 4:50:16.970	0,523	0,547	1,283	-76,599	-18,433	-34,790	-9,481	-32,371	-149,634	-48,158	62,258	41,300	37,49															
02:54:25.616	COM3_115200	2000-0-0 4:45:43.505	0,582	-0,448	1,615	67,261	7,202	55,237	6,603	-32,844	-53,300	11,400	67,658	-52,142	39,82															
02:54:25.616	COM8_115200	2000-0-0 4:50:16.990	0,504	0,481	1,422	-76,477	-9,644	-27,832	-10,322	-32,690	-150,326	-48,158	62,258	41,300	37,30															
02:54:25.632	COM3_115200	2000-0-0 4:45:43.525	0,554	-0,517	1,618	65,735	-3,052	57,678	6,888	-32,844	-51,949	11,400	67,658	-52,142	39,76															
02:54:25.679	COM8_115200	2000-0-0 4:50:17.010	0,572	0,544	1,360	-72,571	-0,610	-31,006	-11,074	-32,756	-151,002	-48,158	62,258	41,300	37,30															
02:54:25.679	COM8_115200	2000-0-0 4:50:17.030	0,514	0,567	1,363	-69,336	4,395	-35,645	-11,662	-32,712	-151,859	-48,158	62,258	41,300	37,33															
02:54:25.679	COM3_115200	2000-0-0 4:45:43.545	0,539	-0,438	1,605	62,744	0,916	53,772	7,169	-32,932	-50,614	11,400	67,658	-52,142	39,82															
02:54:25.679	COM3_115200	2000-0-0 4:45:43.565	0,533	-0,556	1,580	57,556	7,813	52,673	7,344	-32,805	-49,334	11,400	67,658	-52,142	39,76															
02:54:25.694	COM8_115200	2000-0-0 4:50:17.050	0,492	0,632	1,247	-77,454	-16,357	-35,278	-12,283	-32,855	-152,677	-48,158	62,258	41,300	37,33															
02:54:25.702	COM8_115200	2000-0-0 4:50:17.070	0,490	0,597	1,448	-86,060	-33,508	-39,124	-13,129	-33,459	-153,430	-48,158	62,258	41,300	37,42															
02:54:25.713	COM3_115200	2000-0-0 4:45:43.585	0,534	-0,593	1,694	61,890	-9,399	49,316	7,570	-32,855	-48,098	11,400	67,658	-52,142	39,76															
02:54:25.715	COM3_115200	2000-0-0 4:45:43.605	0,529	-0,656	1,696	58,411	-8,545	45,776	7,855	-32,964	-47,005	11,400	67,658	-52,142	39,79															
02:54:25.721	COM8_115200	2000-0-0 4:50:17.090	0,504	0,547	1,496	-83,557	-16,052	-25,940	-14,046	-33,937	-154,094	-48,158	62,258	41,300	37,49															
02:54:25.737	COM3_115200	2000-0-0 4:45:43.625	0,561	-0,708	1,680	57,190	-15,015	45,227	8,108	-33,184	-45,950	11,400	67,658	-52,142	39,79															
02:54:25.746	COM3_115200	2000-0-0 4:45:43.645	0,555	-0,720	1,683	60,242	-19,592	41,687	8,416	-33,519	-44,967	11,400	67,658	-52,142	39,79															
02:54:25.746	COM8_115200	2000-0-0 4:50:17.110	0,523	0,671	1,433	-85,022	-7,996	-26,917	-14,952	-34,052	-154,677	-48,158	62,258	41,300	37,36															
02:54:25.762	COM8_115200	2000-0-0 4:50:17.130	0,480	0,638	1,430	-84,473	-1,343	-26,672	-15,848	-34,124	-155,347	-48,158	62,258	41,300	37,46															
02:54:25.762	COM3_115200	2000-0-0 4:45:43.665	0,481	-0,734	1,694	62,134	-21,057	33,203	8,849	-33,860	-44,154	11,400	67,658	-52,142	39,79															
02:54:25.778	COM8_115200	2000-0-0 4:50:17.150	0,446	0,737	1,497	-91,553	-10,132	-27,710	-16,771	-34,217	-156,006	-48,158	62,258	41,300	37,36															
02:54:25.793	COM3_115200	2000-0-0 4:45:43.685	0,511	-0,783	1,680	60,669	-28,870	33,691	9,294	-34,277	-43,418	11,400	67,658	-52,142	39,76															
02:54:25.793	COM8_115200	2000-0-0 4:50:17.170	0,396	0,635	1,621	-89,661	-14,099	-27,588	-17,759	-34,464	-156,599	-48,158	62,258	41,300	37,27															
02:54:25.809	COM3_115200	2000-0-0 4:45:43.705	0,528	-0,752	1,697	60,242	-30,945	35,217	9,701	-34,810	-42,654	11,400	67,658	-52,142	39,76															
02:54:25.824	COM8_115200	2000-0-0 4:50:17.190	0,466	0,614	1,530	-78,247	2,197	-21,179	-18,627	-34,486	-157,181	-48,158	62,258	41,300	37,39															
02:54:25.824	COM3_115200	2000-0-0 4:45:43.725	0,461	-0,817	1,709	58,716	-28,320	33,142	10,080	-35,266	-41,935	11,400	67,658	-52,142	39,85															
02:54:25.840	COM8_115200	2000-0-0 4:50:17.210	0,380	0,772	1,606	-81,421	-11,780	-23,376	-19,402	-34,519	-157,753	-48,158	62,258	41,300	37,52															
02:54:25.871	COM8_115200	2000-0-0 4:50:17.230	0,436	0,772	1,623	-79,773	-17,700	-22,522	-20,226	-34,744	-158,214	-48,158	62,258	41,300	37,36															
02:54:25.871	COM8_115200	2000-0-0 4:50:17.250	0,354	0,727	1,680	-75,745	-19,592	-24,658	-20,973	-35,052	-158,708	-48,158	62,258	41,300	37,36															
02:54:25.871	COM3_115200	2000-0-0 4:45:43.745	0,459	-0,804	1,687	59,326	-27,954	35,767	10,432	-35,717	-41,160	11,400	67,658	-52,142	39,66															
02:54:25.887	COM3_115200	2000-0-0 4:45:43.765	0,503	-0,778	1,710	61,218	-29,236	36,560	10,778	-36,238	-40,353	11,400	67,658	-52,142	39,85															
02:54:25.887	COM3_115200	2000-0-0 4:45:43.785	0,444	-0,804	1,684	58,105	-19,775	32,959	11,063	-36,590	-39,534	11,400	67,658	-52,142	39,79															
02:54:25.911	COM3_115200	2000-0-0 4:45:43.805	0,386	-0,805	1,723	60,608	-24,597	33,020	11,371	-36,920	-38,754	11,400	67,658	-52,142	39,88															
02:54:25.914	COM8_115200	2000-0-0 4:50:17.270	0,414	0,729	1,660	-71,411	-19,531	-23,193	-21,665	-35,359	-159,170	-48,158	62,258	41,300	37,36															
02:54:25.929	COM3_115200	2000-0-0 4:45:43.825	0,494	-0,794	1,783	63,416	-28,625	33,936	11,717	-37,381	-37,930	11,400	67,658	-52,142	39,92															
02:54:25.929	COM8_115200	2000-0-0 4:50:17.290	0,396	0,787	1,670	-65,857	-26,306	-21,973	-22,242	-35,722	-159,593	-48,158	62,258	41,300	37,42															
02:54:25.929	COM8_115200	2000-0-0 4:50:17.310	0,381	0,801	1,724	-65,186	-30,457	-20,630	-22,835	-36,211	-159,917	-48,158	62,258	41,300	37,23															
02:54:25.945	COM3_115200	2000-0-0 4:45:43.845	0,433	-0,812	1,732	57,434	-13,306	31,494	12,014	-37,601	-37,156	11,400	67,658	-52,142	39,66															
02:54:25.961	COM8_115200	2000-0-0 4:50:17.330	0,420	0,846	1,688	-62,378	-24,841	-20,264	-23,340	-36,601	-160,252	-48,158	62,258	41,300	37,30															
02:54:25.976	COM3_115200	2000-0-0 4:45:43.865	0,359	-0,816	1,807	60,669	-18,433	30,823	12,299	-37,798	-36,387	11,400	67,658	-52,142	39,73															
02:54:25.976	COM8_115200	2000-0-0 4:50:17.350	0,371	0,879	1,706	-60,242	-24,780	-19,836	-23,785	-36,964	-160,626	-48,158	62,258	41,300	37,36															
02:54:25.992	COM3_115200	2000-0-0 4:45:43.885	0,386	-0,798	1,814	59,937	-16,541	29,968	12,585	-37,980	-35,607	11,400	67,658	-52,142	39,76															
02:54:25.992	COM8_115200	2000-0-0 4:50:17.370	0,379	0,849	1,747	-61,340	-24,902	-19,897	-24,241	-37,326	-160,977	-48,158	62,258	41,300	37,23															
02:54:26.023	COM8_115200	2000-0-0 4:50:17.390	0,359	0,910	1,719	-59,692	-20,020	-19,592	-24,631	-37,584	-161,356	-48,158	62,258	41,300	37,33															
02:54:26.023	COM3_115200	2000-0-0 4:45:43.905	0,343	-0,783	1,796	57,739	-10,925	27,710	12,870	-38,079	-34,865	11,400	67,658	-52,142	39,79															
02:54:26.023	COM3_115200	2000-0-0 4:45:43.925	0,390	-0,924	1,807	59,692	-17,090	28,748	13,140	-38,117	-34,156	11,400	67,658	-52,142	39,82															
02:54:26.054	COM8_115200	2000-0-0 4:50:17.410	0,397	0,807	1,772	-62,622	-23,804	-15,930	-25,098	-37,870	-161,697	-48,158	62,258	41,300	37,30															
02:54:26.054	COM8_115200	2000-0-0 4:50:17.430	0,412	0,921	1,733	-59,631	-18,677	-18,982	-25,516	-38,112	-162,043	-48,158	62,258	41,300	37,42															
02:54:26.054	COM3_115200	2000-0-0 4:45:43.945	0,449	-0,844	1,909	60,608	-18,066	27,100	13,508	-38,337	-33,459	11,400	67,658	-52,142	39,85															
02:54:26.070	COM3_115200	2000-0-0 4:45:43.965	0,287	-0,844	1,949	56,763	-2,014	34,607	13,716	-38,342	-32,624	11,400	67,658	-52,142	39,79															
02:54:26.086	COM8_115200	2000-0-0 4:50:17.450	0,298	0,863	1,782	-61,523	-21,240	-18,677	-25,895	-38,370	-162,449	-48,158	62,258	41,300	37,33															
02:54:26.086	COM3_115200	2000-0-0 4:45:43.985	0,293	-0,877	1,971	49,622	2,930	36,316	13,689	-38,194	-31,613	11,400	67,658	-52,142	39,85															
02:54:26.101	COM8_115200	2000-0-0 4:50:17.470	0,310	0,868	1,782	-60,547	-13,733	-17,334	-26,285	-38,546	-162,856	-48,158	62,258	41,300	37,36															
02:54:26.101	COM3_115200	2000-0-0 4:45:44.005	0,380	-0,967	1,827	41,626	5,066	32,532	13,491	-37,892	-30,602	11,400	67,658	-52,142	39,82															
02:54:26.117	COM8_115200	2000-0-0 4:50:17.490	0,351	0,910	1,816	-56,396	-9,888	-17,944	-26,548	-38,606	-163,339	-48,158	62,258	41,300	37,42															
02:54:26.132	COM3_115200	2000-0-0 4:45:44.025	0,268	-0,869	1,943	44,495	-6,531	28,992	13,420	-37,766	-29,778	11,400	67,658	-52,142	39,82															
02:54:26.132	COM8_115200	2000-0-0 4:50:17.510	0,362	0,916	1,815	-54,565	-12,390	-17,822	-26,768	-38,666	-163,817	-48,158	62,258	41,300	37,27															
02:54:26.148	COM3_115200	2000-0-0 4:45:44.045	0,377	-0,953	2,019	43,518	-7,996	28,870	13,392	-37,771	-29,042	11,400	67,658	-52,142	39,70															
02:54:26.164	COM8_115200	2000-0-0 4:50:17.530	0,269	0,897	1,900	-55,603	-12,512	-18,616	-26,966	-38,754	-164,312	-48,158	62,258	41,300	37,42															
02:54:26.164	COM3_115200	2000-0-0 4:45:44.065	0,240	-0,907	2,021	41,321	-1,831	29,297	13,277	-37,634	-28,218	11,400	67,658	-52,142	39,85															
02:54:26.179	COM8_115200	2000-0-0 4:50:17.550	0,358	0,882	1,880	-52,002	-9,644	-18,799	-27,164	-38,848	-164,800	-48,158	62,258	41,300	37,30															
02:54:26.195	COM8_115200	2000-0-0 4:50:17.570	0,292	0,859	1,905	-49,622	-13,794	-16,418	-27,279	-38,897	-165,284	-48,158	62,258	41,300	37,33															
02:54:26.195	COM3_115200	2000-0-0 4:45:44.085	0,278	-0,956	1,974	41,870	-7,813	27,893	13,167	-37,513	-27,422	11,400	67,658	-52,142	39,73															
02:54:26.195	COM3_115200	2000-0-0 4:45:44.105	0,310	-0,850	2,024	38,757	-7,446	25,513	13,129	-37,480	-26,735	11,400	67,658	-52,142	39,73															
02:54:26.211	COM8_115200	2000-0-0 4:50:17.590	0,271	0,944	1,906	-42,114	-11,841	-14,282	-27,312	-38,958	-165,690	-48,158	62,258	41,300	37,39															
02:54:26.226	COM3_115200	2000-0-0 4:45:44.125	0,282	-0,988	1,996	37,231	-0,671	21,423	13,046	-37,299	-26,125	11,400	67,658	-52,142	39,70															
02:54:26.242	COM3_115200	2000-0-0 4:45:44.145	0,281	-0,991	2,046	38,391	-11,658	21,179	13,002	-37,211	-25,549	11,400	67,658	-52,142	39,85															
02:54:26.257	COM8_115200	2000-0-0 4:50:17.610	0,328	1,002	1,953	-40,833	-16,663	-13,367	-27,312	-39,040	-166,042	-48,158	62,258	41,300	37,42															
02:54:26.257	COM8_115200	2000-0-0 4:50:17.630	0,314	0,965	1,957	-40,161	-17,578	-13,184	-27,318	-39,144	-166,360	-48,158	62,258	41,300	37,39															
02:54:26.257	COM3_115200	2000-0-0 4:45:44.165	0,237	-0,880	2,107	35,522	-8,606	26,428	12,914	-37,161	-24,911	11,400	67,658	-52,142	39,76															
02:54:26.273	COM8_115200	2000-0-0 4:50:17.650	0,301	0,994	1,949	-41,931	-17,273	-19,470	-27,312	-39,298	-166,761	-48,158	62,258	41,300	37,33															
02:54:26.289	COM3_115200	2000-0-0 4:45:44.185	0,278	-0,956	1,968	28,992	14,343	26,550	12,623	-36,848	-24,131	11,400	67,658	-52,142	39,73															
02:54:26.289	COM8_115200	2000-0-0 4:50:17.670	0,247	0,955	1,980	-45,166	-20,874	-21,362	-27,296	-39,523	-167,239	-48,158	62,258	41,300	37,27															
02:54:26.304	COM3_115200	2000-0-0 4:45:44.205	0,243	-1,024	2,008	33,630	19,165	24,597	12,343	-36,255	-23,346	11,400	67,658	-52,142	39,79															
02:54:26.320	COM3_115200	2000-0-0 4:45:44.225	0,152	-0,888	2,186	33,569	32,288	23,499	12,140	-35,469	-22,577	11,400	67,658	-52,142	39,70															
02:54:26.320	COM8_115200	2000-0-0 4:50:17.690	0,222	0,927	1,984	-43,335	-21,179	-19,592	-27,296	-39,743	-167,701	-48,158	62,258	41,300	37,52															
02:54:26.336	COM8_115200	2000-0-0 4:50:17.710	0,335	0,938	1,953	-35,522	-21,301	-16,052	-27,252	-39,963	-168,069	-48,158	62,258	41,300	37,30															
02:54:26.351	COM3_115200	2000-0-0 4:45:44.245	0,251	-0,877	2,192	22,522	48,523	20,081	11,794	-34,415	-21,780	11,400	67,658	-52,142	39,66															
02:54:26.351	COM8_115200	2000-0-0 4:50:17.730	0,245	0,903	1,967	-35,217	-23,254	-14,526	-27,158	-40,150	-168,398	-48,158	62,258	41,300	37,30															
02:54:26.367	COM3_115200	2000-0-0 4:45:44.265	0,234	-0,957	2,005	13,550	50,781	13,977	11,283	-33,074	-21,094	11,400	67,658	-52,142	39,79															
02:54:26.382	COM8_115200	2000-0-0 4:50:17.750	0,219	0,933	2,012	-29,114	-13,977	-18,555	-26,906	-40,276	-168,827	-48,158	62,258	41,300	37,46															
02:54:26.398	COM3_115200	2000-0-0 4:45:44.285	0,217	-1,001	2,062	17,700	22,827	11,353	10,931	-32,135	-20,660	11,400	67,658	-52,142	39,76															
02:54:26.414	COM8_115200	2000-0-0 4:50:17.770	0,252	0,933	1,964	-26,428	-12,268	-18,005	-26,559	-40,342	-169,338	-48,158	62,258	41,300	37,27															
02:54:26.414	COM8_115200	2000-0-0 4:50:17.790	0,184	0,993	2,000	-27,588	-15,808	-18,127	-26,180	-40,391	-169,849	-48,158	62,258	41,300	37,33															
02:54:26.414	COM3_115200	2000-0-0 4:45:44.305	0,136	-0,960	2,191	24,170	13,794	12,878	10,767	-31,602	-20,325	11,400	67,658	-52,142	39,70															
02:54:26.414	COM3_115200	2000-0-0 4:45:44.325	0,186	-0,893	2,172	23,743	18,433	23,315	10,558	-30,992	-19,797	11,400	67,658	-52,142	39,82															
02:54:26.445	COM3_115200	2000-0-0 4:45:44.345	0,153	-0,943	2,152	18,311	31,616	16,785	10,250	-30,218	-19,232	11,400	67,658	-52,142	39,85															
02:54:26.445	COM8_115200	2000-0-0 4:50:17.810	0,247	0,929	2,031	-30,640	-21,179	-19,043	-25,933	-40,562	-170,288	-48,158	62,258	41,300	37,30															
02:54:26.461	COM8_115200	2000-0-0 4:50:17.830	0,268	0,916	2,014	-24,536	-10,254	-21,118	-25,560	-40,616	-170,865	-48,158	62,258	41,300	37,36															
02:54:26.461	COM3_115200	2000-0-0 4:45:44.365	0,251	-0,975	2,054	15,320	6,042	14,526	9,937	-29,608	-18,820	11,400	67,658	-52,142	39,79															
02:54:26.476	COM3_115200	2000-0-0 4:45:44.385	0,162	-0,968	2,173	20,386	-5,005	10,437	9,756	-29,383	-18,556	11,400	67,658	-52,142	39,79															
02:54:26.492	COM8_115200	2000-0-0 4:50:17.850	0,230	0,955	2,062	-18,250	-14,526	-20,691	-25,010	-40,655	-171,475	-48,158	62,258	41,300	37,33															
02:54:26.492	COM8_115200	2000-0-0 4:50:17.870	0,169	0,985	2,084	-13,794	-30,579	-18,005	-24,483	-40,869	-171,914	-48,158	62,258	41,300	37,30															
02:54:26.507	COM3_115200	2000-0-0 4:45:44.405	0,238	-0,883	2,205	19,958	0,854	13,733	9,641	-29,246	-18,314	11,400	67,658	-52,142	39,79															
02:54:26.523	COM8_115200	2000-0-0 4:50:17.890	0,232	0,936	2,095	-9,460	-42,847	-17,761	-24,038	-41,369	-172,145	-48,158	62,258	41,300	37,27															
02:54:26.523	COM3_115200	2000-0-0 4:45:44.425	0,123	-0,951	2,090	14,465	19,043	15,137	9,366	-28,685	-17,946	11,400	67,658	-52,142	39,79															
02:54:26.539	COM8_115200	2000-0-0 4:50:17.910	0,319	0,962	2,032	-5,127	-41,321	-26,184	-23,368	-41,984	-172,529	-48,158	62,258	41,300	37,36															
02:54:26.539	COM3_115200	2000-0-0 4:45:44.445	0,220	-0,985	2,080	16,541	4,883	15,991	9,102	-28,224	-17,573	11,400	67,658	-52,142	39,76															
02:54:26.554	COM8_115200	2000-0-0 4:50:17.930	0,230	1,013	1,962	-1,038	-17,212	-22,400	-22,495	-42,237	-173,106	-48,158	62,258	41,300	37,42															
02:54:26.570	COM3_115200	2000-0-0 4:45:44.465	0,246	-0,902	2,263	20,447	-18,372	9,277	8,926	-28,235	-17,303	11,400	67,658	-52,142	39,79															
02:54:26.570	COM8_115200	2000-0-0 4:50:17.950	0,213	1,079	1,919	-7,690	-6,409	-16,357	-21,638	-42,259	-173,738	-48,158	62,258	41,300	37,33															
02:54:26.586	COM3_115200	2000-0-0 4:45:44.485	0,028	-0,956	2,256	17,456	-8,301	15,137	8,789	-28,147	-17,128	11,400	67,658	-52,142	39,76															
02:54:26.601	COM3_115200	2000-0-0 4:45:44.505	0,109	-0,834	2,255	14,893	-3,662	19,043	8,553	-28,114	-16,716	11,400	67,658	-52,142	39,85															
02:54:26.617	COM8_115200	2000-0-0 4:50:17.970	0,157	1,017	1,896	-8,850	3,723	-17,700	-20,841	-41,962	-174,424	-48,158	62,258	41,300	37,36															
02:54:26.617	COM8_115200	2000-0-0 4:50:17.990	0,177	0,970	1,960	-8,911	9,155	-19,043	-19,990	-41,572	-175,215	-48,158	62,258	41,300	37,39															
02:54:26.617	COM3_115200	2000-0-0 4:45:44.525	0,098	-0,989	2,127	10,071	-1,648	12,817	8,218	-27,790	-16,414	11,400	67,658	-52,142	39,79															
02:54:26.632	COM8_115200	2000-0-0 4:50:18.010	0,206	0,994	1,979	-7,996	8,789	-18,372	-19,116	-41,166	-176,006	-48,158	62,258	41,300	37,42															
02:54:26.648	COM3_115200	2000-0-0 4:45:44.545	0,230	-1,050	2,215	15,930	-21,423	5,798	8,042	-27,834	-16,304	11,400	67,658	-52,142	39,85															
02:54:26.648	COM8_115200	2000-0-0 4:50:18.030	0,156	0,996	1,932	-5,920	8,057	-10,193	-18,331	-40,699	-176,644	-48,158	62,258	41,300	37,33															
02:54:26.664	COM3_115200	2000-0-0 4:45:44.565	0,229	-0,941	2,193	15,930	-15,198	14,343	7,899	-27,938	-16,117	11,400	67,658	-52,142	39,82															
02:54:26.679	COM3_115200	2000-0-0 4:45:44.585	0,151	-0,966	2,134	13,489	-8,362	13,245	7,652	-27,867	-15,864	11,400	67,658	-52,142	39,79															
02:54:26.679	COM8_115200	2000-0-0 4:50:18.050	0,152	0,973	1,934	-4,150	13,794	-5,859	-17,622	-40,128	-177,111	-48,158	62,258	41,300	37,27															
02:54:26.695	COM3_115200	2000-0-0 4:45:44.605	0,175	-0,951	2,132	16,479	-20,142	9,949	7,476	-27,938	-15,661	11,400	67,658	-52,142	39,85															
02:54:26.695	COM8_115200	2000-0-0 4:50:18.070	0,175	0,988	1,995	-4,944	16,113	-5,371	-16,924	-39,485	-177,556	-48,158	62,258	41,300	37,33															
02:54:26.710	COM8_115200	2000-0-0 4:50:18.090	0,159	1,039	1,956	-7,141	17,639	-2,136	-16,320	-38,809	-177,946	-48,158	62,258	41,300	37,30															
