Time	COM	Chip Time()	Acceleration X(g)	Acceleration Y(g)	Acceleration Z(g)	Angular velocity X(/s)	Angular velocity Y(/s)	Angular velocity Z(/s)	Angle X()	Angle Y()	Angle Z()	Magnetic field X	Magnetic field Y	Magnetic field Z	Temperature()	Pressure(Pa)	Height(m)	Longitude()	Latitude()	GPS ground speed(km)	GPS course()	GPS height(m)	Number of satellites()	Position location()	Horizontal position()	Vertical position()	Quaternions 0()	Quaternions 1()	Quaternions 2()	Quaternions 3()
22:35:12.942	COM3_115200	2000-0-0 0:25:53.245	0,266	-0,871	1,644	5,554	-22,461	-3,296	-45,319	-17,501	-167,712	-18,042	143,225	-1,725	38,70															
22:35:12.995	COM8_115200	2000-0-0 0:31:4.430	0,379	0,841	1,611	-3,723	8,728	-2,930	40,935	-36,178	-60,804	-48,158	62,258	41,300	36,04															
22:35:12.996	COM8_115200	2000-0-0 0:31:4.450	0,386	0,838	1,615	-3,418	11,230	-1,770	40,600	-35,711	-60,551	-48,158	62,258	41,300	35,94															
22:35:12.998	COM8_115200	2000-0-0 0:31:4.470	0,385	0,838	1,632	-2,441	9,766	0,000	40,259	-35,272	-60,271	-48,158	62,258	41,300	36,00															
22:35:13.002	COM3_115200	2000-0-0 0:25:53.265	0,254	-0,875	1,642	6,653	-19,836	-3,357	-45,060	-17,726	-167,492	-18,092	143,200	-1,617	38,72															
22:35:13.006	COM3_115200	2000-0-0 0:25:53.285	0,279	-0,884	1,636	7,629	-17,212	-3,784	-44,775	-17,924	-167,305	-18,158	143,242	-1,708	38,69															
22:35:13.010	COM3_115200	2000-0-0 0:25:53.305	0,253	-0,906	1,640	7,874	-13,306	-4,089	-44,462	-18,073	-167,195	-18,183	143,283	-1,883	38,73															
22:35:13.012	COM8_115200	2000-0-0 0:31:4.490	0,393	0,841	1,650	-2,441	7,629	1,221	39,946	-34,887	-60,007	-48,158	62,258	41,300	36,03															
22:35:13.013	COM3_115200	2000-0-0 0:25:53.325	0,244	-0,908	1,658	7,568	-12,573	-3,235	-44,154	-18,193	-167,102	-18,200	143,333	-2,242	38,68															
22:35:13.029	COM8_115200	2000-0-0 0:31:4.510	0,378	0,847	1,631	-0,793	9,705	1,587	39,639	-34,503	-59,727	-48,158	62,258	41,300	35,97															
22:35:13.029	COM3_115200	2000-0-0 0:25:53.345	0,242	-0,903	1,664	7,324	-10,681	-1,648	-43,857	-18,276	-166,998	-18,275	143,408	-2,617	38,75															
22:35:13.045	COM8_115200	2000-0-0 0:31:4.530	0,392	0,848	1,629	1,038	9,216	1,160	39,380	-34,113	-59,442	-48,158	62,258	41,300	36,00															
22:35:13.061	COM3_115200	2000-0-0 0:25:53.365	0,266	-0,902	1,663	6,226	-7,202	-1,465	-43,561	-18,292	-166,943	-18,275	143,375	-2,708	38,71															
22:35:13.076	COM8_115200	2000-0-0 0:31:4.550	0,418	0,844	1,652	1,953	8,301	0,793	39,155	-33,734	-59,189	-48,158	62,258	41,300	35,96															
22:35:13.076	COM3_115200	2000-0-0 0:25:53.385	0,243	-0,886	1,662	4,150	-5,188	-1,770	-43,297	-18,281	-166,921	-18,317	143,317	-2,842	38,76															
22:35:13.092	COM3_115200	2000-0-0 0:25:53.405	0,238	-0,876	1,674	2,136	-4,944	-1,770	-43,072	-18,254	-166,915	-18,275	143,292	-2,892	38,74															
22:35:13.092	COM8_115200	2000-0-0 0:31:4.570	0,388	0,835	1,649	3,235	7,690	0,916	38,969	-33,371	-58,947	-48,158	62,258	41,300	36,01															
22:35:13.107	COM8_115200	2000-0-0 0:31:4.590	0,396	0,840	1,626	4,333	6,775	1,160	38,809	-33,025	-58,716	-48,158	62,258	41,300	36,00															
22:35:13.139	COM8_115200	2000-0-0 0:31:4.610	0,392	0,833	1,631	5,127	7,141	1,465	38,672	-32,690	-58,491	-48,158	62,258	41,300	35,98															
22:35:13.154	COM3_115200	2000-0-0 0:25:53.425	0,230	-0,876	1,673	0,305	-3,052	-2,380	-42,874	-18,215	-166,932	-18,333	143,308	-2,967	38,76															
22:35:13.154	COM8_115200	2000-0-0 0:31:4.630	0,367	0,822	1,622	6,409	4,944	3,052	38,562	-32,393	-58,271	-48,158	62,258	41,300	36,00															
22:35:13.154	COM3_115200	2000-0-0 0:25:53.445	0,252	-0,870	1,664	-2,136	-0,854	-2,930	-42,709	-18,149	-166,992	-18,442	143,317	-3,108	38,71															
22:35:13.154	COM3_115200	2000-0-0 0:25:53.465	0,238	-0,866	1,667	-4,211	0,000	-3,845	-42,583	-18,078	-167,075	-18,458	143,367	-3,083	38,71															
22:35:13.170	COM8_115200	2000-0-0 0:31:4.650	0,368	0,831	1,605	6,348	6,592	4,761	38,441	-32,119	-58,019	-48,158	62,258	41,300	36,03															
22:35:13.185	COM3_115200	2000-0-0 0:25:53.485	0,232	-0,868	1,659	-6,226	0,732	-5,249	-42,484	-18,012	-167,190	-18,575	143,383	-3,050	38,71															
22:35:13.201	COM8_115200	2000-0-0 0:31:4.670	0,393	0,815	1,613	4,150	5,127	9,705	38,271	-31,888	-57,706	-48,158	62,258	41,300	36,00															
22:35:13.201	COM3_115200	2000-0-0 0:25:53.505	0,208	-0,844	1,665	-8,057	2,380	-7,446	-42,413	-17,952	-167,355	-18,700	143,375	-3,058	38,75															
22:35:13.217	COM8_115200	2000-0-0 0:31:4.690	0,473	0,780	1,597	6,470	5,249	16,113	38,051	-31,745	-57,294	-48,158	62,258	41,300	35,93															
22:35:13.217	COM3_115200	2000-0-0 0:25:53.525	0,202	-0,822	1,656	-10,315	4,883	-11,536	-42,352	-17,902	-167,596	-18,742	143,308	-2,850	38,76															
22:35:13.232	COM8_115200	2000-0-0 0:31:4.710	0,377	0,784	1,631	7,935	4,700	20,630	37,815	-31,663	-56,761	-48,158	62,258	41,300	35,98															
22:35:13.232	COM3_115200	2000-0-0 0:25:53.545	0,387	-0,791	1,644	-13,123	8,667	-18,250	-42,303	-17,880	-167,981	-18,917	143,267	-2,608	38,74															
22:35:13.248	COM8_115200	2000-0-0 0:31:4.730	0,423	0,788	1,654	6,287	4,700	20,142	37,557	-31,608	-56,239	-48,158	62,258	41,300	36,09															
22:35:13.263	COM3_115200	2000-0-0 0:25:53.565	0,306	-0,866	1,581	-17,456	18,127	-20,752	-42,264	-17,831	-168,547	-19,233	143,233	-2,325	38,76															
22:35:13.279	COM3_115200	2000-0-0 0:25:53.585	0,240	-0,863	1,602	-19,592	5,066	-17,456	-42,325	-17,798	-169,030	-19,667	143,117	-2,092	38,69															
22:35:13.279	COM8_115200	2000-0-0 0:31:4.750	0,418	0,830	1,624	4,700	2,563	21,667	37,282	-31,591	-55,712	-48,158	62,258	41,300	36,00															
22:35:13.295	COM3_115200	2000-0-0 0:25:53.605	0,233	-0,873	1,625	-21,301	0,977	-15,869	-42,468	-17,886	-169,327	-20,183	143,100	-1,708	38,73															
22:35:13.295	COM8_115200	2000-0-0 0:31:4.770	0,438	0,808	1,593	9,460	4,761	23,193	37,024	-31,564	-55,146	-48,158	62,258	41,300	35,97															
22:35:13.310	COM8_115200	2000-0-0 0:31:4.790	0,454	0,836	1,587	12,207	2,625	22,095	36,865	-31,564	-54,613	-48,158	62,258	41,300	36,00															
22:35:13.326	COM3_115200	2000-0-0 0:25:53.625	0,259	-0,864	1,651	-22,278	10,498	-20,508	-42,610	-17,930	-169,728	-20,725	143,058	-1,208	38,70															
22:35:13.342	COM8_115200	2000-0-0 0:31:4.810	0,388	0,844	1,584	15,320	4,700	17,212	36,793	-31,525	-54,113	-48,158	62,258	41,300	35,97															
22:35:13.357	COM3_115200	2000-0-0 0:25:53.645	0,491	-0,865	1,606	-25,391	26,733	-25,024	-42,704	-17,831	-170,431	-21,317	142,933	-0,667	38,73															
22:35:13.357	COM8_115200	2000-0-0 0:31:4.830	0,398	0,858	1,610	12,329	5,188	15,198	36,749	-31,415	-53,668	-48,158	62,258	41,300	36,00															
22:35:13.357	COM8_115200	2000-0-0 0:31:4.850	0,448	0,824	1,581	11,292	5,737	15,381	36,650	-31,300	-53,240	-48,158	62,258	41,300	35,99															
22:35:13.373	COM3_115200	2000-0-0 0:25:53.665	0,423	-0,913	1,537	-25,879	34,485	-18,860	-42,786	-17,556	-171,271	-21,967	142,817	-0,233	38,71															
22:35:13.373	COM3_115200	2000-0-0 0:25:53.685	0,360	-0,916	1,582	-18,433	9,155	-7,813	-42,907	-17,309	-171,766	-22,583	142,708	0,200	38,68															
22:35:13.389	COM8_115200	2000-0-0 0:31:4.870	0,527	0,796	1,592	11,169	-0,366	14,221	36,584	-31,212	-52,850	-48,158	62,258	41,300	35,97															
22:35:13.389	COM3_115200	2000-0-0 0:25:53.705	0,329	-0,870	1,700	-12,512	-0,244	-7,263	-42,973	-17,309	-171,909	-23,100	142,625	0,725	38,71															
22:35:13.404	COM8_115200	2000-0-0 0:31:4.890	0,439	0,826	1,596	9,155	-7,568	10,620	36,579	-31,240	-52,608	-48,158	62,258	41,300	35,96															
22:35:13.404	COM3_115200	2000-0-0 0:25:53.725	0,377	-0,899	1,650	-7,813	5,371	-10,864	-42,929	-17,303	-172,128	-23,567	142,508	1,308	38,73															
22:35:13.435	COM8_115200	2000-0-0 0:31:4.910	0,446	0,785	1,599	7,202	-4,211	9,949	36,552	-31,245	-52,443	-48,158	62,258	41,300	36,04															
22:35:13.435	COM3_115200	2000-0-0 0:25:53.745	0,365	-0,890	1,620	-4,761	9,155	-9,460	-42,786	-17,243	-172,430	-23,933	142,450	1,733	38,73															
22:35:13.451	COM8_115200	2000-0-0 0:31:4.930	0,447	0,742	1,598	7,813	0,732	12,573	36,464	-31,185	-52,180	-48,158	62,258	41,300	35,98															
22:35:13.451	COM3_115200	2000-0-0 0:25:53.765	0,359	-0,797	1,647	-2,991	4,395	-8,667	-42,610	-17,188	-172,683	-24,283	142,350	2,000	38,76															
22:35:13.467	COM3_115200	2000-0-0 0:25:53.785	0,342	-0,764	1,647	-3,784	5,493	-7,751	-42,446	-17,150	-172,897	-24,583	142,283	2,217	38,69															
22:35:13.467	COM8_115200	2000-0-0 0:31:4.950	0,444	0,752	1,603	9,277	0,000	15,320	36,359	-31,141	-51,833	-48,158	62,258	41,300	35,98															
22:35:13.498	COM3_115200	2000-0-0 0:25:53.805	0,387	-0,759	1,666	-4,761	3,723	-11,719	-42,275	-17,128	-173,139	-24,858	142,192	2,550	38,67															
22:35:13.498	COM8_115200	2000-0-0 0:31:4.970	0,448	0,754	1,615	10,803	-1,343	16,235	36,282	-31,146	-51,476	-48,158	62,258	41,300	35,97															
22:35:13.513	COM8_115200	2000-0-0 0:31:4.990	0,451	0,748	1,627	11,963	-0,122	16,968	36,211	-31,157	-51,108	-48,158	62,258	41,300	36,04															
22:35:13.513	COM3_115200	2000-0-0 0:25:53.825	0,374	-0,805	1,629	-7,263	-0,793	-13,062	-42,155	-17,210	-173,381	-25,200	142,067	2,642	38,78															
22:35:13.529	COM8_115200	2000-0-0 0:31:5.010	0,474	0,757	1,599	15,442	0,916	19,043	36,161	-31,152	-50,685	-48,158	62,258	41,300	36,03															
22:35:13.529	COM3_115200	2000-0-0 0:25:53.845	0,323	-0,788	1,658	-10,864	-3,174	-12,024	-42,105	-17,342	-173,557	-25,550	142,033	2,725	38,73															
22:35:13.545	COM8_115200	2000-0-0 0:31:5.030	0,486	0,795	1,580	18,555	2,625	18,494	36,172	-31,152	-50,246	-48,158	62,258	41,300	36,02															
22:35:13.560	COM3_115200	2000-0-0 0:25:53.865	0,355	-0,797	1,660	-16,235	-4,700	-11,353	-42,166	-17,485	-173,699	-25,883	141,967	2,858	38,77															
22:35:13.560	COM8_115200	2000-0-0 0:31:5.050	0,485	0,779	1,566	21,362	6,042	17,334	36,233	-31,080	-49,779	-48,158	62,258	41,300	35,99															
22:35:13.576	COM3_115200	2000-0-0 0:25:53.885	0,373	-0,799	1,648	-21,362	-3,479	-12,329	-42,319	-17,628	-173,853	-26,217	141,800	3,142	38,71															
22:35:13.592	COM8_115200	2000-0-0 0:31:5.070	0,433	0,761	1,567	26,184	12,085	14,954	36,354	-30,916	-49,296	-48,158	62,258	41,300	36,01															
22:35:13.607	COM3_115200	2000-0-0 0:25:53.905	0,324	-0,795	1,631	-28,015	-3,784	-12,512	-42,589	-17,765	-174,012	-26,483	141,733	3,558	38,73															
22:35:13.607	COM8_115200	2000-0-0 0:31:5.090	0,502	0,776	1,536	28,381	15,991	14,160	36,530	-30,663	-48,779	-48,158	62,258	41,300	35,97															
22:35:13.607	COM3_115200	2000-0-0 0:25:53.925	0,365	-0,747	1,629	-40,161	2,747	-15,747	-43,011	-17,875	-174,282	-26,817	141,625	4,050	38,68															
22:35:13.623	COM8_115200	2000-0-0 0:31:5.110	0,480	0,717	1,549	31,433	15,747	14,160	36,755	-30,405	-48,246	-48,158	62,258	41,300	36,04															
22:35:13.638	COM3_115200	2000-0-0 0:25:53.945	0,361	-0,717	1,600	-52,368	5,737	-13,123	-43,671	-17,930	-174,584	-27,208	141,400	4,742	38,76															
22:35:13.660	COM8_115200	2000-0-0 0:31:5.130	0,499	0,702	1,550	37,781	26,611	15,320	37,018	-30,031	-47,587	-48,158	62,258	41,300	36,00															
22:35:13.664	COM3_115200	2000-0-0 0:25:53.965	0,380	-0,667	1,599	-64,880	12,024	-9,338	-44,544	-17,858	-174,935	-27,608	141,117	5,800	38,67															
22:35:13.679	COM8_115200	2000-0-0 0:31:5.150	0,480	0,731	1,526	39,001	24,780	16,479	37,315	-29,630	-46,846	-48,158	62,258	41,300	35,99															
22:35:13.695	COM3_115200	2000-0-0 0:25:53.985	0,318	-0,640	1,570	-74,585	21,240	-7,324	-45,604	-17,650	-175,336	-28,017	140,825	6,975	38,73															
22:35:13.726	COM3_115200	2000-0-0 0:25:54.005	0,370	-0,666	1,492	-79,712	24,963	-5,920	-46,763	-17,342	-175,809	-28,425	140,367	8,333	38,80															
22:35:13.742	COM3_115200	2000-0-0 0:25:54.025	0,426	-0,753	1,413	-80,078	29,724	-3,174	-47,950	-16,957	-176,336	-28,808	139,800	10,058	38,61															
22:35:13.742	COM3_115200	2000-0-0 0:25:54.045	0,447	-0,691	1,389	-77,942	22,644	-1,282	-49,125	-16,578	-176,776	-29,192	139,075	11,767	38,76															
22:35:13.742	COM8_115200	2000-0-0 0:31:5.170	0,490	0,687	1,564	40,649	26,428	16,235	37,634	-29,262	-46,154	-48,158	62,258	41,300	36,01															
22:35:13.742	COM8_115200	2000-0-0 0:31:5.190	0,479	0,629	1,514	44,006	33,020	19,348	37,958	-28,845	-45,368	-48,158	62,258	41,300	35,96															
22:35:13.758	COM3_115200	2000-0-0 0:25:54.065	0,435	-0,650	1,378	-72,327	13,428	-4,944	-50,240	-16,370	-177,078	-29,558	138,450	13,400	38,73															
22:35:13.789	COM3_115200	2000-0-0 0:25:54.085	0,409	-0,690	1,375	-66,162	7,080	-8,484	-51,229	-16,331	-177,336	-29,875	137,842	15,208	38,70															
22:35:13.789	COM8_115200	2000-0-0 0:31:5.210	0,608	0,594	1,518	47,485	32,166	23,438	38,293	-28,433	-44,462	-48,158	62,258	41,300	36,03															
22:35:13.789	COM8_115200	2000-0-0 0:31:5.230	0,560	0,602	1,542	45,410	22,827	23,804	38,655	-28,185	-43,632	-48,158	62,258	41,300	36,00															
22:35:13.789	COM8_115200	2000-0-0 0:31:5.250	0,558	0,548	1,517	47,791	24,109	26,062	39,034	-27,993	-42,808	-48,158	62,258	41,300	36,00															
22:35:13.804	COM8_115200	2000-0-0 0:31:5.270	0,548	0,532	1,473	48,218	18,066	30,579	39,419	-27,916	-41,968	-48,158	62,258	41,300	35,99															
22:35:13.804	COM3_115200	2000-0-0 0:25:54.105	0,362	-0,666	1,403	-61,035	9,460	-9,338	-52,103	-16,342	-177,594	-30,225	137,075	17,125	38,67															
22:35:13.820	COM3_115200	2000-0-0 0:25:54.125	0,385	-0,673	1,355	-54,626	11,353	-11,841	-52,828	-16,342	-177,946	-30,567	136,367	18,608	38,73															
22:35:13.836	COM8_115200	2000-0-0 0:31:5.290	0,559	0,490	1,483	48,828	17,273	33,020	39,787	-27,960	-41,149	-48,158	62,258	41,300	36,00															
22:35:13.836	COM8_115200	2000-0-0 0:31:5.310	0,544	0,473	1,436	50,903	22,400	35,461	40,150	-27,960	-40,199	-48,158	62,258	41,300	36,02															
22:35:13.836	COM3_115200	2000-0-0 0:25:54.145	0,416	-0,618	1,365	-50,171	6,775	-16,541	-53,438	-16,441	-178,286	-30,950	135,642	20,017	38,74															
22:35:13.851	COM8_115200	2000-0-0 0:31:5.330	0,534	0,463	1,489	49,011	32,959	35,583	40,402	-27,889	-39,177	-48,158	62,258	41,300	36,00															
22:35:13.851	COM3_115200	2000-0-0 0:25:54.165	0,389	-0,665	1,327	-45,715	6,104	-18,738	-53,948	-16,639	-178,616	-31,500	134,908	21,508	38,67															
22:35:13.867	COM8_115200	2000-0-0 0:31:5.350	0,624	0,390	1,446	52,612	41,199	42,297	40,583	-27,708	-37,886	-48,158	62,258	41,300	35,96															
22:35:13.882	COM3_115200	2000-0-0 0:25:54.185	0,374	-0,648	1,355	-44,922	16,296	-18,311	-54,382	-16,776	-179,050	-32,025	134,158	22,833	38,77															
22:35:13.898	COM8_115200	2000-0-0 0:31:5.370	0,688	0,459	1,457	57,373	34,668	43,945	40,836	-27,603	-36,530	-48,158	62,258	41,300	36,03															
22:35:13.898	COM3_115200	2000-0-0 0:25:54.205	0,403	-0,602	1,337	-43,640	31,799	-18,799	-54,728	-16,743	-179,725	-32,658	133,450	24,133	38,73															
22:35:13.914	COM8_115200	2000-0-0 0:31:5.390	0,645	0,434	1,522	57,861	16,052	44,678	41,226	-27,757	-35,436	-48,158	62,258	41,300	35,93															
22:35:13.914	COM3_115200	2000-0-0 0:25:54.225	0,446	-0,618	1,324	-41,565	38,635	-20,386	-54,981	-16,617	179,412	-33,417	132,742	25,092	38,76															
22:35:13.929	COM3_115200	2000-0-0 0:25:54.245	0,390	-0,612	1,332	-39,551	44,067	-26,733	-55,140	-16,512	178,396	-34,300	132,008	26,008	38,75															
22:35:13.945	COM8_115200	2000-0-0 0:31:5.410	0,657	0,539	1,446	59,021	0,610	46,326	41,704	-28,152	-34,486	-48,158	62,258	41,300	35,95															
22:35:13.945	COM3_115200	2000-0-0 0:25:54.265	0,471	-0,588	1,333	-36,987	33,569	-30,090	-55,256	-16,518	177,369	-35,442	131,217	26,842	38,73															
22:35:13.961	COM8_115200	2000-0-0 0:31:5.430	0,716	0,501	1,481	59,326	-13,916	46,082	42,292	-28,856	-33,871	-48,158	62,258	41,300	36,08															
22:35:13.961	COM8_115200	2000-0-0 0:31:5.450	0,650	0,462	1,429	66,956	-7,385	40,894	42,973	-29,471	-33,223	-48,158	62,258	41,300	36,07															
22:35:13.976	COM3_115200	2000-0-0 0:25:54.285	0,501	-0,573	1,368	-33,813	23,315	-31,189	-55,349	-16,710	176,572	-36,625	130,408	27,700	38,71															
22:35:13.992	COM8_115200	2000-0-0 0:31:5.470	0,701	0,503	1,401	65,674	-24,658	38,513	43,813	-30,157	-32,800	-48,158	62,258	41,300	35,99															
22:35:13.999	COM3_115200	2000-0-0 0:25:54.305	0,517	-0,556	1,372	-31,250	14,587	-33,813	-55,426	-17,029	175,869	-37,758	129,600	28,567	38,68															
22:35:14.015	COM8_115200	2000-0-0 0:31:5.490	0,725	0,443	1,428	62,134	-31,189	39,856	44,681	-31,069	-32,624	-48,158	62,258	41,300	35,99															
22:35:14.019	COM3_115200	2000-0-0 0:25:54.325	0,477	-0,507	1,426	-31,189	9,888	-36,438	-55,492	-17,463	175,237	-38,942	128,792	29,392	38,68															
22:35:14.032	COM8_115200	2000-0-0 0:31:5.510	0,624	0,437	1,359	62,927	-20,142	34,363	45,505	-31,822	-32,355	-48,158	62,258	41,300	35,94															
22:35:14.046	COM3_115200	2000-0-0 0:25:54.345	0,483	-0,436	1,451	-34,241	11,108	-37,598	-55,563	-17,952	174,611	-40,100	127,925	29,992	38,73															
22:35:14.046	COM8_115200	2000-0-0 0:31:5.530	0,667	0,399	1,404	64,514	-14,465	33,936	46,291	-32,459	-32,053	-48,158	62,258	41,300	35,98															
22:35:14.093	COM8_115200	2000-0-0 0:31:5.550	0,631	0,382	1,380	62,073	-8,911	35,400	46,967	-32,992	-31,569	-48,158	62,258	41,300	35,94															
22:35:14.093	COM8_115200	2000-0-0 0:31:5.570	0,682	0,318	1,409	67,932	-3,906	35,278	47,642	-33,481	-31,025	-48,158	62,258	41,300	36,04															
22:35:14.093	COM3_115200	2000-0-0 0:25:54.365	0,548	-0,434	1,442	-37,537	4,578	-36,194	-55,712	-18,457	174,045	-41,250	127,100	30,592	38,69															
22:35:14.124	COM3_115200	2000-0-0 0:25:54.385	0,537	-0,454	1,390	-39,917	-5,859	-36,499	-55,953	-19,050	173,628	-42,283	126,167	31,367	38,67															
22:35:14.124	COM8_115200	2000-0-0 0:31:5.590	0,678	0,350	1,363	66,956	-2,319	31,677	48,323	-33,893	-30,454	-48,158	62,258	41,300	36,08															
22:35:14.124	COM3_115200	2000-0-0 0:25:54.405	0,470	-0,418	1,418	-42,908	-12,817	-39,001	-56,277	-19,792	173,375	-43,242	125,225	32,225	38,69															
22:35:14.124	COM3_115200	2000-0-0 0:25:54.425	0,551	-0,403	1,411	-48,828	-9,583	-39,368	-56,673	-20,544	173,062	-44,058	124,208	33,017	38,75															
22:35:14.124	COM3_115200	2000-0-0 0:25:54.445	0,506	-0,422	1,346	-52,246	-13,000	-37,048	-57,151	-21,275	172,804	-44,900	123,092	33,958	38,69															
22:35:14.140	COM8_115200	2000-0-0 0:31:5.610	0,684	0,305	1,381	70,435	1,282	31,616	49,026	-34,272	-29,905	-48,158	62,258	41,300	35,97															
22:35:14.140	COM8_115200	2000-0-0 0:31:5.630	0,714	0,287	1,412	70,007	6,042	31,372	49,664	-34,579	-29,240	-48,158	62,258	41,300	35,98															
22:35:14.155	COM3_115200	2000-0-0 0:25:54.465	0,486	-0,389	1,333	-56,335	-11,353	-38,391	-57,711	-22,011	172,562	-45,675	121,967	35,092	38,70															
22:35:14.171	COM8_115200	2000-0-0 0:31:5.650	0,744	0,254	1,314	68,481	13,367	29,419	50,229	-34,821	-28,477	-48,158	62,258	41,300	36,00															
22:35:14.171	COM3_115200	2000-0-0 0:25:54.485	0,574	-0,408	1,295	-57,495	-7,690	-38,025	-58,271	-22,731	172,238	-46,408	120,750	36,242	38,64															
22:35:14.187	COM8_115200	2000-0-0 0:31:5.670	0,689	0,277	1,324	60,547	21,606	22,278	50,603	-34,882	-27,658	-48,158	62,258	41,300	35,93															
22:35:14.202	COM3_115200	2000-0-0 0:25:54.505	0,700	-0,433	1,279	-55,542	-8,362	-34,851	-58,821	-23,401	171,931	-47,042	119,375	37,425	38,76															
22:35:14.218	COM8_115200	2000-0-0 0:31:5.690	0,759	0,208	1,296	62,134	32,715	23,010	50,850	-34,750	-26,675	-48,158	62,258	41,300	35,98															
22:35:14.218	COM3_115200	2000-0-0 0:25:54.525	0,647	-0,429	1,277	-53,772	-5,432	-34,973	-59,310	-24,033	171,617	-47,750	117,992	38,750	38,66															
22:35:14.218	COM8_115200	2000-0-0 0:31:5.710	0,858	0,215	1,236	55,359	19,836	23,193	51,064	-34,700	-25,790	-48,158	62,258	41,300	36,00															
22:35:14.249	COM3_115200	2000-0-0 0:25:54.545	0,634	-0,372	1,312	-54,749	-4,944	-37,537	-59,771	-24,703	171,249	-48,425	116,600	39,942	38,76															
22:35:14.249	COM3_115200	2000-0-0 0:25:54.565	0,657	-0,371	1,239	-54,016	-10,803	-33,875	-60,255	-25,389	170,936	-49,108	115,108	41,075	38,66															
22:35:14.249	COM8_115200	2000-0-0 0:31:5.730	0,787	0,211	1,282	48,584	14,465	21,912	51,235	-34,799	-25,098	-48,158	62,258	41,300	35,98															
22:35:14.265	COM3_115200	2000-0-0 0:25:54.585	0,575	-0,321	1,212	-52,612	-11,841	-33,813	-60,749	-26,076	170,766	-49,742	113,550	42,142	38,71															
22:35:14.280	COM8_115200	2000-0-0 0:31:5.750	0,823	0,180	1,308	46,387	16,907	21,240	51,345	-34,865	-24,412	-48,158	62,258	41,300	36,00															
22:35:14.280	COM8_115200	2000-0-0 0:31:5.770	0,788	0,173	1,342	41,687	12,878	23,743	51,345	-34,975	-23,719	-48,158	62,258	41,300	35,93															
22:35:14.296	COM3_115200	2000-0-0 0:25:54.605	0,542	-0,241	1,198	-50,232	-10,254	-37,720	-61,161	-26,790	170,502	-50,275	111,933	43,358	38,70															
22:35:14.312	COM8_115200	2000-0-0 0:31:5.790	0,732	0,155	1,344	37,842	4,089	23,804	51,345	-35,184	-23,154	-48,158	62,258	41,300	36,02															
22:35:14.312	COM3_115200	2000-0-0 0:25:54.625	0,597	-0,220	1,189	-47,424	-16,541	-38,757	-61,523	-27,587	170,261	-50,817	110,358	44,392	38,73															
22:35:14.327	COM3_115200	2000-0-0 0:25:54.645	0,543	-0,195	1,196	-45,471	-17,090	-37,842	-61,859	-28,416	170,129	-51,325	108,875	45,450	38,67															
22:35:14.343	COM8_115200	2000-0-0 0:31:5.810	0,725	0,138	1,378	33,691	-2,258	26,733	51,312	-35,535	-22,731	-48,158	62,258	41,300	35,96															
22:35:14.343	COM8_115200	2000-0-0 0:31:5.830	0,643	0,088	1,387	36,743	3,662	26,917	51,240	-35,876	-22,247	-48,158	62,258	41,300	36,04															
22:35:14.358	COM3_115200	2000-0-0 0:25:54.665	0,513	-0,170	1,211	-44,922	-10,315	-37,109	-62,117	-29,174	169,887	-51,742	107,383	46,442	38,70															
22:35:14.358	COM8_115200	2000-0-0 0:31:5.850	0,706	0,068	1,375	39,063	3,235	30,151	51,158	-36,183	-21,638	-48,158	62,258	41,300	36,03															
22:35:14.374	COM3_115200	2000-0-0 0:25:54.685	0,541	-0,142	1,225	-44,922	-5,859	-36,560	-62,298	-29,850	169,536	-52,058	105,825	47,408	38,67															
22:35:14.390	COM8_115200	2000-0-0 0:31:5.870	0,643	0,045	1,383	37,842	-4,150	33,813	51,086	-36,634	-21,077	-48,158	62,258	41,300	36,00															
22:35:14.390	COM3_115200	2000-0-0 0:25:54.705	0,564	-0,128	1,227	-44,861	-4,333	-36,072	-62,441	-30,509	169,146	-52,475	104,325	48,375	38,73															
22:35:14.421	COM8_115200	2000-0-0 0:31:5.890	0,642	0,028	1,422	41,077	-0,610	36,621	51,015	-37,117	-20,495	-48,158	62,258	41,300	35,98															
22:35:14.421	COM3_115200	2000-0-0 0:25:54.725	0,533	-0,134	1,201	-45,898	-1,465	-33,508	-62,556	-31,108	168,695	-52,917	102,767	49,167	38,73															
22:35:14.468	COM8_115200	2000-0-0 0:31:5.910	0,663	0,021	1,412	44,434	5,127	41,138	50,894	-37,595	-19,748	-48,158	62,258	41,300	35,96															
22:35:14.468	COM8_115200	2000-0-0 0:31:5.930	0,719	0,006	1,388	48,462	9,766	46,448	50,718	-38,062	-18,776	-48,158	62,258	41,300	36,03															
22:35:14.468	COM3_115200	2000-0-0 0:25:54.745	0,642	-0,111	1,212	-47,363	1,587	-32,288	-62,677	-31,635	168,234	-53,350	101,225	49,950	38,76															
22:35:14.468	COM3_115200	2000-0-0 0:25:54.765	0,638	-0,104	1,193	-47,302	1,892	-31,982	-62,770	-32,141	167,717	-53,875	99,658	50,675	38,77															
22:35:14.483	COM3_115200	2000-0-0 0:25:54.785	0,569	-0,116	1,156	-49,072	8,728	-30,579	-62,814	-32,596	167,108	-54,333	98,125	51,425	38,74															
22:35:14.483	COM8_115200	2000-0-0 0:31:5.950	0,738	-0,032	1,342	48,157	7,996	53,284	50,449	-38,622	-17,666	-48,158	62,258	41,300	35,98															
22:35:14.483	COM8_115200	2000-0-0 0:31:5.970	0,727	-0,017	1,387	46,753	0,366	52,979	50,197	-39,265	-16,622	-48,158	62,258	41,300	36,04															
22:35:14.483	COM3_115200	2000-0-0 0:25:54.805	0,633	-0,111	1,143	-49,622	2,258	-28,015	-62,908	-33,025	166,531	-54,892	96,500	52,075	38,73															
22:35:14.499	COM8_115200	2000-0-0 0:31:5.990	0,757	-0,045	1,385	49,927	0,671	55,664	49,955	-39,974	-15,568	-48,158	62,258	41,300	35,99															
22:35:14.515	COM3_115200	2000-0-0 0:25:54.825	0,647	-0,050	1,130	-47,974	-1,343	-24,658	-63,062	-33,448	166,135	-55,408	94,917	52,608	38,73															
22:35:14.530	COM8_115200	2000-0-0 0:31:6.010	0,770	-0,087	1,308	47,363	-2,625	56,091	49,741	-40,732	-14,557	-48,158	62,258	41,300	36,00															
22:35:14.530	COM3_115200	2000-0-0 0:25:54.845	0,643	-0,022	1,107	-43,091	0,000	-25,940	-63,127	-33,871	165,729	-55,850	93,258	53,083	38,69															
22:35:14.546	COM3_115200	2000-0-0 0:25:54.865	0,644	-0,047	1,185	-38,696	0,916	-26,428	-63,067	-34,321	165,289	-56,250	91,625	53,650	38,66															
22:35:14.562	COM8_115200	2000-0-0 0:31:6.030	0,758	-0,084	1,342	49,805	0,305	52,979	49,493	-41,446	-13,513	-48,158	62,258	41,300	36,02															
22:35:14.562	COM3_115200	2000-0-0 0:25:54.885	0,634	-0,013	1,213	-39,246	8,362	-22,034	-62,930	-34,667	164,762	-56,708	90,075	54,367	38,73															
22:35:14.593	COM8_115200	2000-0-0 0:31:6.050	0,793	-0,122	1,292	43,701	-6,531	58,472	49,164	-42,193	-12,464	-48,158	62,258	41,300	36,00															
22:35:14.593	COM8_115200	2000-0-0 0:31:6.070	0,752	-0,158	1,314	37,537	-6,104	52,917	48,741	-42,995	-11,503	-48,158	62,258	41,300	36,04															
22:35:14.593	COM3_115200	2000-0-0 0:25:54.905	0,701	0,032	1,191	-39,734	10,193	-20,386	-62,748	-34,898	164,158	-57,133	88,592	54,850	38,69															
22:35:14.608	COM8_115200	2000-0-0 0:31:6.090	0,793	-0,167	1,295	35,339	-1,038	54,382	48,153	-43,687	-10,415	-48,158	62,258	41,300	36,00															
22:35:14.624	COM3_115200	2000-0-0 0:25:54.925	0,657	0,025	1,197	-37,476	0,610	-20,386	-62,628	-35,200	163,724	-57,567	87,167	55,125	38,74															
22:35:14.624	COM8_115200	2000-0-0 0:31:6.110	0,798	-0,191	1,291	29,785	-8,362	52,734	47,516	-44,423	-9,382	-48,158	62,258	41,300	35,97															
22:35:14.624	COM3_115200	2000-0-0 0:25:54.945	0,602	0,012	1,184	-35,950	-1,587	-19,104	-62,512	-35,513	163,367	-57,992	85,717	55,258	38,73															
22:35:14.640	COM8_115200	2000-0-0 0:31:6.130	0,801	-0,236	1,321	28,381	-6,897	52,795	46,802	-45,159	-8,355	-48,158	62,258	41,300	35,91															
22:35:14.655	COM3_115200	2000-0-0 0:25:54.965	0,566	0,021	1,205	-35,095	-5,737	-17,822	-62,413	-35,837	163,098	-58,242	84,317	55,517	38,76															
22:35:14.673	COM8_115200	2000-0-0 0:31:6.150	0,755	-0,255	1,304	24,597	-10,376	47,974	46,055	-45,862	-7,361	-48,158	62,258	41,300	36,02															
22:35:14.678	COM3_115200	2000-0-0 0:25:54.985	0,618	0,063	1,221	-35,034	-7,385	-17,273	-62,336	-36,172	162,889	-58,458	82,992	55,883	38,72															
22:35:14.680	COM8_115200	2000-0-0 0:31:6.170	0,749	-0,267	1,330	22,705	-10,925	46,509	45,341	-46,511	-6,526	-48,158	62,258	41,300	35,97															
22:35:14.695	COM3_115200	2000-0-0 0:25:55.005	0,637	0,089	1,212	-34,363	-12,146	-17,395	-62,292	-36,535	162,757	-58,567	81,700	56,292	38,69															
22:35:14.711	COM8_115200	2000-0-0 0:31:6.190	0,759	-0,260	1,341	18,860	-9,277	47,546	44,467	-47,164	-5,548	-48,158	62,258	41,300	36,03															
22:35:14.711	COM3_115200	2000-0-0 0:25:55.025	0,554	0,088	1,219	-35,095	-13,733	-15,076	-62,287	-36,898	162,697	-58,675	80,392	56,608	38,73															
22:35:14.727	COM8_115200	2000-0-0 0:31:6.210	0,699	-0,312	1,343	17,212	-7,690	46,509	43,506	-47,763	-4,515	-48,158	62,258	41,300	35,99															
22:35:14.727	COM3_115200	2000-0-0 0:25:55.045	0,541	0,122	1,224	-35,767	-16,846	-15,259	-62,314	-37,260	162,675	-58,633	79,142	56,925	38,73															
22:35:14.742	COM8_115200	2000-0-0 0:31:6.230	0,661	-0,331	1,380	17,700	-0,977	46,692	42,424	-48,274	-3,356	-48,158	62,258	41,300	35,99															
22:35:14.758	COM3_115200	2000-0-0 0:25:55.065	0,542	0,130	1,217	-35,767	-18,677	-14,893	-62,386	-37,634	162,724	-58,517	77,900	57,308	38,66															
22:35:14.773	COM3_115200	2000-0-0 0:25:55.085	0,537	0,120	1,167	-33,386	-20,325	-17,151	-62,413	-38,040	162,762	-58,283	76,633	57,775	38,67															
22:35:14.773	COM8_115200	2000-0-0 0:31:6.250	0,695	-0,340	1,381	16,907	-2,380	46,936	41,276	-48,735	-2,115	-48,158	62,258	41,300	35,96															
22:35:14.805	COM8_115200	2000-0-0 0:31:6.270	0,670	-0,362	1,402	19,775	-0,122	46,875	40,122	-49,158	-0,818	-48,158	62,258	41,300	35,93															
22:35:14.805	COM8_115200	2000-0-0 0:31:6.290	0,598	-0,414	1,387	19,958	-1,953	46,936	38,963	-49,548	0,511	-48,158	62,258	41,300	35,98															
22:35:14.805	COM3_115200	2000-0-0 0:25:55.105	0,574	0,141	1,167	-30,640	-17,822	-19,531	-62,369	-38,474	162,762	-57,992	75,375	58,333	38,72															
22:35:14.836	COM8_115200	2000-0-0 0:31:6.310	0,547	-0,449	1,394	21,301	2,014	44,678	37,859	-49,867	1,741	-48,158	62,258	41,300	35,93															
22:35:14.836	COM3_115200	2000-0-0 0:25:55.125	0,538	0,146	1,199	-29,358	-10,986	-21,301	-62,188	-38,908	162,625	-57,658	74,075	58,800	38,65															
22:35:14.836	COM3_115200	2000-0-0 0:25:55.145	0,576	0,149	1,182	-27,649	-11,719	-23,865	-61,880	-39,342	162,328	-57,433	72,875	59,200	38,73															
22:35:14.852	COM3_115200	2000-0-0 0:25:55.165	0,503	0,176	1,180	-26,245	-7,568	-23,499	-61,529	-39,792	162,021	-57,275	71,792	59,525	38,73															
22:35:14.852	COM8_115200	2000-0-0 0:31:6.330	0,599	-0,441	1,388	19,104	-4,150	48,950	36,634	-50,208	3,159	-48,158	62,258	41,300	36,01															
22:35:14.867	COM8_115200	2000-0-0 0:31:6.350	0,602	-0,474	1,386	21,118	-4,578	47,607	35,420	-50,620	4,526	-48,158	62,258	41,300	36,05															
22:35:14.867	COM3_115200	2000-0-0 0:25:55.185	0,527	0,167	1,183	-25,757	-3,174	-25,024	-61,051	-40,188	161,543	-57,133	70,667	59,925	38,74															
22:35:14.883	COM8_115200	2000-0-0 0:31:6.370	0,578	-0,491	1,399	24,353	-3,052	46,021	34,250	-50,933	5,927	-48,158	62,258	41,300	36,00															
22:35:14.898	COM3_115200	2000-0-0 0:25:55.205	0,526	0,191	1,185	-26,611	-3,784	-26,367	-60,562	-40,594	161,043	-57,025	69,525	60,083	38,69															
22:35:14.914	COM8_115200	2000-0-0 0:31:6.390	0,606	-0,507	1,418	24,475	-8,789	45,715	33,151	-51,268	7,278	-48,158	62,258	41,300	36,04															
22:35:14.914	COM3_115200	2000-0-0 0:25:55.225	0,500	0,228	1,164	-27,588	-3,174	-28,687	-60,051	-41,017	160,466	-56,942	68,358	60,233	38,75															
22:35:14.930	COM8_115200	2000-0-0 0:31:6.410	0,617	-0,525	1,392	25,879	-7,874	43,030	32,086	-51,608	8,586	-48,158	62,258	41,300	36,00															
22:35:14.930	COM3_115200	2000-0-0 0:25:55.245	0,504	0,250	1,183	-28,015	-3,540	-29,846	-59,529	-41,473	159,879	-56,875	67,067	60,383	38,68															
22:35:14.945	COM3_115200	2000-0-0 0:25:55.265	0,468	0,261	1,205	-29,175	2,991	-28,564	-58,942	-41,858	159,181	-56,858	65,742	60,525	38,70															
22:35:14.961	COM8_115200	2000-0-0 0:31:6.430	0,584	-0,549	1,390	28,931	-1,648	39,001	31,080	-51,801	9,882	-48,158	62,258	41,300	36,00															
22:35:14.961	COM8_115200	2000-0-0 0:31:6.450	0,612	-0,541	1,384	29,846	1,709	36,743	30,103	-51,855	11,190	-48,158	62,258	41,300	36,03															
22:35:14.961	COM3_115200	2000-0-0 0:25:55.285	0,516	0,292	1,195	-30,457	3,723	-28,870	-58,304	-42,204	158,368	-56,900	64,475	60,592	38,66															
22:35:14.992	COM8_115200	2000-0-0 0:31:6.470	0,672	-0,543	1,391	28,320	-1,282	36,255	29,141	-51,910	12,469	-48,158	62,258	41,300	35,97															
22:35:14.992	COM3_115200	2000-0-0 0:25:55.305	0,496	0,309	1,190	-30,396	-5,493	-29,785	-57,766	-42,605	157,692	-56,933	63,167	60,525	38,73															
22:35:15.008	COM8_115200	2000-0-0 0:31:6.490	0,606	-0,571	1,373	26,245	-1,465	27,100	28,268	-51,938	13,568	-48,158	62,258	41,300	36,00															
22:35:15.008	COM3_115200	2000-0-0 0:25:55.325	0,458	0,315	1,186	-29,968	-9,827	-29,480	-57,294	-43,061	157,132	-56,933	61,867	60,533	38,71															
22:35:15.031	COM8_115200	2000-0-0 0:31:6.510	0,613	-0,589	1,382	27,649	4,944	28,564	27,416	-51,833	14,661	-48,158	62,258	41,300	35,97															
22:35:15.036	COM3_115200	2000-0-0 0:25:55.345	0,448	0,333	1,203	-31,006	-13,977	-29,541	-56,876	-43,566	156,654	-56,842	60,517	60,608	38,78															
22:35:15.066	COM3_115200	2000-0-0 0:25:55.365	0,468	0,364	1,154	-32,349	-21,545	-29,114	-56,563	-44,116	156,292	-56,725	59,208	60,792	38,72															
22:35:15.069	COM8_115200	2000-0-0 0:31:6.530	0,590	-0,594	1,386	26,855	7,690	26,245	26,554	-51,652	15,754	-48,158	62,258	41,300	36,01															
22:35:15.077	COM3_115200	2000-0-0 0:25:55.385	0,517	0,372	1,162	-30,884	-36,438	-28,687	-56,431	-44,802	156,193	-56,450	57,958	61,067	38,76															
22:35:15.080	COM8_115200	2000-0-0 0:31:6.550	0,589	-0,593	1,419	27,527	11,353	25,513	25,708	-51,361	16,853	-48,158	62,258	41,300	35,97															
22:35:15.080	COM8_115200	2000-0-0 0:31:6.570	0,529	-0,596	1,425	26,978	11,169	22,888	24,901	-51,048	17,880	-48,158	62,258	41,300	36,04															
22:35:15.095	COM3_115200	2000-0-0 0:25:55.405	0,469	0,356	1,141	-29,419	-38,696	-27,893	-56,382	-45,555	156,270	-55,917	56,625	61,342	38,74															
22:35:15.111	COM8_115200	2000-0-0 0:31:6.590	0,522	-0,602	1,441	25,757	7,507	21,484	24,175	-50,735	18,814	-48,158	62,258	41,300	35,93															
22:35:15.111	COM3_115200	2000-0-0 0:25:55.425	0,438	0,386	1,139	-28,625	-33,264	-27,283	-56,250	-46,258	156,253	-55,133	55,292	61,717	38,71															
22:35:15.127	COM3_115200	2000-0-0 0:25:55.445	0,463	0,397	1,162	-28,198	-34,424	-27,161	-56,107	-46,945	156,231	-54,325	53,933	62,217	38,65															
22:35:15.127	COM8_115200	2000-0-0 0:31:6.610	0,504	-0,636	1,463	24,414	5,432	23,499	23,439	-50,477	19,704	-48,158	62,258	41,300	35,92															
22:35:15.142	COM3_115200	2000-0-0 0:25:55.465	0,439	0,412	1,133	-28,320	-26,062	-24,658	-55,854	-47,538	156,072	-53,408	52,683	62,442	38,76															
22:35:15.189	COM8_115200	2000-0-0 0:31:6.630	0,502	-0,636	1,478	22,644	2,319	26,428	22,643	-50,262	20,649	-48,158	62,258	41,300	35,95															
22:35:15.189	COM8_115200	2000-0-0 0:31:6.650	0,528	-0,608	1,507	21,790	-2,808	29,297	21,813	-50,147	21,610	-48,158	62,258	41,300	35,95															
22:35:15.189	COM8_115200	2000-0-0 0:31:6.670	0,489	-0,627	1,504	19,775	-6,165	31,677	20,951	-50,109	22,604	-48,158	62,258	41,300	35,95															
22:35:15.189	COM3_115200	2000-0-0 0:25:55.485	0,432	0,416	1,127	-25,635	-18,555	-24,963	-55,421	-48,027	155,704	-52,558	51,458	62,675	38,73															
22:35:15.205	COM8_115200	2000-0-0 0:31:6.690	0,477	-0,626	1,506	18,127	-9,338	34,729	20,012	-50,142	23,648	-48,158	62,258	41,300	36,00															
22:35:15.205	COM3_115200	2000-0-0 0:25:55.505	0,418	0,437	1,151	-23,499	-13,916	-25,146	-54,833	-48,472	155,198	-51,783	50,158	62,975	38,68															
22:35:15.205	COM3_115200	2000-0-0 0:25:55.525	0,346	0,430	1,167	-22,400	-8,484	-25,024	-54,075	-48,823	154,512	-51,108	48,967	63,175	38,73															
22:35:15.220	COM8_115200	2000-0-0 0:31:6.710	0,457	-0,638	1,483	18,677	-10,986	36,987	19,034	-50,208	24,741	-48,158	62,258	41,300	35,99															
22:35:15.236	COM3_115200	2000-0-0 0:25:55.545	0,361	0,436	1,201	-22,949	-2,502	-27,832	-53,185	-49,120	153,644	-50,492	47,892	63,350	38,74															
22:35:15.252	COM8_115200	2000-0-0 0:31:6.730	0,465	-0,668	1,472	18,921	-11,230	38,757	18,023	-50,284	25,906	-48,158	62,258	41,300	35,92															
22:35:15.267	COM3_115200	2000-0-0 0:25:55.565	0,403	0,481	1,219	-25,391	-7,141	-26,245	-52,339	-49,411	152,776	-50,033	46,767	63,467	38,69															
22:35:15.267	COM3_115200	2000-0-0 0:25:55.585	0,397	0,488	1,220	-26,794	-4,578	-24,170	-51,531	-49,664	151,930	-49,617	45,650	63,408	38,72															
22:35:15.267	COM8_115200	2000-0-0 0:31:6.750	0,493	-0,664	1,474	18,555	-11,597	39,612	16,990	-50,367	27,098	-48,158	62,258	41,300	36,01															
22:35:15.283	COM3_115200	2000-0-0 0:25:55.605	0,360	0,491	1,217	-27,649	-3,052	-22,827	-50,718	-49,850	151,035	-49,275	44,508	63,317	38,72															
22:35:15.298	COM8_115200	2000-0-0 0:31:6.770	0,472	-0,673	1,465	21,790	-7,202	37,964	15,985	-50,361	28,306	-48,158	62,258	41,300	36,00															
22:35:15.298	COM8_115200	2000-0-0 0:31:6.790	0,476	-0,699	1,450	22,888	-4,028	37,415	15,024	-50,273	29,509	-48,158	62,258	41,300	35,97															
22:35:15.314	COM3_115200	2000-0-0 0:25:55.625	0,392	0,473	1,216	-28,687	-11,292	-22,217	-49,999	-50,076	150,244	-48,942	43,217	63,383	38,70															
22:35:15.329	COM8_115200	2000-0-0 0:31:6.810	0,484	-0,725	1,469	20,569	-5,920	36,865	14,063	-50,164	30,701	-48,158	62,258	41,300	36,03															
22:35:15.329	COM3_115200	2000-0-0 0:25:55.645	0,375	0,503	1,213	-30,029	-12,085	-20,020	-49,427	-50,323	149,606	-48,600	42,025	63,342	38,69															
22:35:15.345	COM3_115200	2000-0-0 0:25:55.665	0,338	0,535	1,207	-30,823	-8,240	-20,264	-48,818	-50,521	148,898	-48,267	40,942	63,325	38,67															
22:35:15.345	COM8_115200	2000-0-0 0:31:6.830	0,466	-0,718	1,490	21,118	-2,563	34,973	13,123	-50,032	31,844	-48,158	62,258	41,300	36,01															
22:35:15.361	COM8_115200	2000-0-0 0:31:6.850	0,483	-0,724	1,478	23,621	4,272	31,982	12,266	-49,746	32,948	-48,158	62,258	41,300	35,96															
22:35:15.377	COM3_115200	2000-0-0 0:25:55.685	0,338	0,539	1,209	-30,945	-11,658	-20,569	-48,181	-50,713	148,145	-47,883	39,817	63,350	38,71															
22:35:15.392	COM8_115200	2000-0-0 0:31:6.870	0,466	-0,745	1,462	21,973	6,348	30,212	11,464	-49,362	33,997	-48,158	62,258	41,300	36,00															
22:35:15.392	COM3_115200	2000-0-0 0:25:55.705	0,344	0,547	1,245	-31,006	-20,752	-21,240	-47,681	-51,004	147,574	-47,400	38,675	63,150	38,73															
22:35:15.408	COM3_115200	2000-0-0 0:25:55.725	0,228	0,561	1,277	-32,715	-25,452	-19,653	-47,313	-51,361	147,134	-46,842	37,442	62,925	38,73															
22:35:15.408	COM8_115200	2000-0-0 0:31:6.890	0,483	-0,736	1,459	17,151	6,348	28,809	10,640	-48,961	34,980	-48,158	62,258	41,300	35,97															
22:35:15.423	COM8_115200	2000-0-0 0:31:6.910	0,466	-0,750	1,458	11,597	9,338	24,597	9,789	-48,499	35,859	-48,158	62,258	41,300	36,00															
22:35:15.423	COM3_115200	2000-0-0 0:25:55.745	0,308	0,573	1,271	-34,424	-41,382	-20,325	-47,148	-51,833	146,915	-46,142	36,300	62,833	38,73															
22:35:15.455	COM8_115200	2000-0-0 0:31:6.930	0,461	-0,765	1,474	10,254	19,897	20,081	8,981	-47,873	36,601	-48,158	62,258	41,300	36,02															
22:35:15.455	COM3_115200	2000-0-0 0:25:55.765	0,405	0,608	1,270	-37,964	-60,730	-22,583	-47,439	-52,630	147,184	-45,283	35,017	62,933	38,74															
22:35:15.470	COM8_115200	2000-0-0 0:31:6.950	0,490	-0,794	1,490	8,118	23,682	15,320	8,245	-47,098	37,211	-48,158	62,258	41,300	36,03															
22:35:15.470	COM3_115200	2000-0-0 0:25:55.785	0,339	0,620	1,234	-37,903	-48,706	-22,644	-47,697	-53,438	147,382	-44,108	33,733	63,092	38,73															
22:35:15.486	COM8_115200	2000-0-0 0:31:6.970	0,464	-0,806	1,508	4,883	25,757	11,963	7,559	-46,269	37,705	-48,158	62,258	41,300	36,05															
22:35:15.486	COM3_115200	2000-0-0 0:25:55.805	0,307	0,594	1,194	-34,729	-37,292	-21,851	-47,604	-54,053	147,189	-42,758	32,392	63,183	38,76															
22:35:15.502	COM3_115200	2000-0-0 0:25:55.825	0,337	0,578	1,142	-29,175	-34,363	-22,034	-47,324	-54,586	146,876	-41,367	31,067	63,142	38,69															
22:35:15.517	COM8_115200	2000-0-0 0:31:6.990	0,469	-0,832	1,521	3,479	27,893	9,827	6,905	-45,374	38,095	-48,158	62,258	41,300	35,92															
22:35:15.548	COM8_115200	2000-0-0 0:31:7.010	0,487	-0,808	1,563	1,343	24,048	9,033	6,262	-44,517	38,419	-48,158	62,258	41,300	36,00															
22:35:15.548	COM8_115200	2000-0-0 0:31:7.030	0,471	-0,783	1,581	0,244	18,616	5,798	5,669	-43,770	38,650	-48,158	62,258	41,300	36,00															
22:35:15.548	COM3_115200	2000-0-0 0:25:55.845	0,316	0,578	1,084	-21,118	-28,015	-20,203	-46,807	-55,020	146,442	-40,058	29,817	63,025	38,76															
22:35:15.564	COM8_115200	2000-0-0 0:31:7.050	0,485	-0,779	1,578	0,977	13,611	3,174	5,164	-43,116	38,765	-48,158	62,258	41,300	36,05															
22:35:15.564	COM3_115200	2000-0-0 0:25:55.865	0,330	0,562	1,047	-11,169	-22,095	-16,602	-46,000	-55,344	145,893	-38,950	28,758	63,033	38,71															
22:35:15.580	COM3_115200	2000-0-0 0:25:55.885	0,318	0,593	1,069	-2,991	-14,526	-12,329	-44,945	-55,503	145,250	-37,917	27,833	62,975	38,74															
22:35:15.580	COM8_115200	2000-0-0 0:31:7.070	0,441	-0,787	1,580	1,099	8,484	1,770	4,719	-42,578	38,798	-48,158	62,258	41,300	35,96															
22:35:15.580	COM3_115200	2000-0-0 0:25:55.905	0,249	0,606	1,107	2,991	-4,822	-8,606	-43,643	-55,464	144,476	-37,125	27,225	62,992	38,69															
22:35:15.611	COM8_115200	2000-0-0 0:31:7.090	0,393	-0,747	1,580	1,099	4,211	2,075	4,312	-42,116	38,809	-48,158	62,258	41,300	35,99															
22:35:15.611	COM3_115200	2000-0-0 0:25:55.925	0,250	0,569	1,194	4,761	-4,333	-7,751	-42,242	-55,349	143,646	-36,467	26,825	63,108	38,67															
22:35:15.626	COM8_115200	2000-0-0 0:31:7.110	0,385	-0,759	1,569	2,563	2,625	3,296	3,911	-41,732	38,826	-48,158	62,258	41,300	35,98															
22:35:15.626	COM3_115200	2000-0-0 0:25:55.945	0,226	0,586	1,229	3,052	-1,038	-5,249	-40,880	-55,162	142,839	-35,900	26,583	63,267	38,78															
22:35:15.642	COM8_115200	2000-0-0 0:31:7.130	0,392	-0,746	1,584	4,333	-0,305	6,042	3,521	-41,380	38,903	-48,158	62,258	41,300	36,00															
22:35:15.642	COM3_115200	2000-0-0 0:25:55.965	0,212	0,594	1,245	0,916	3,906	-5,981	-39,501	-54,871	141,949	-35,458	26,383	63,200	38,67															
22:35:15.673	COM8_115200	2000-0-0 0:31:7.150	0,415	-0,717	1,593	8,545	-2,869	7,690	3,175	-41,083	39,040	-48,158	62,258	41,300	35,99															
22:35:15.673	COM3_115200	2000-0-0 0:25:55.985	0,219	0,588	1,255	-2,136	8,118	-6,653	-38,112	-54,498	140,949	-35,183	26,258	63,275	38,73															
22:35:15.696	COM8_115200	2000-0-0 0:31:7.170	0,421	-0,758	1,584	10,620	-3,540	8,118	2,878	-40,825	39,183	-48,158	62,258	41,300	36,00															
22:35:15.712	COM8_115200	2000-0-0 0:31:7.190	0,399	-0,755	1,570	11,780	-0,610	7,202	2,626	-40,523	39,320	-48,158	62,258	41,300	35,97															
22:35:15.712	COM3_115200	2000-0-0 0:25:56.005	0,221	0,584	1,261	-3,662	10,437	-6,042	-36,760	-54,075	139,944	-35,158	26,058	63,283	38,71															
22:35:15.712	COM3_115200	2000-0-0 0:25:56.025	0,238	0,578	1,268	-4,578	8,423	-6,470	-35,458	-53,635	138,955	-35,200	25,908	63,300	38,73															
22:35:15.727	COM8_115200	2000-0-0 0:31:7.210	0,398	-0,767	1,563	12,390	0,427	7,324	2,406	-40,193	39,435	-48,158	62,258	41,300	35,96															
22:35:15.727	COM3_115200	2000-0-0 0:25:56.045	0,249	0,611	1,254	-5,188	8,850	-7,874	-34,211	-53,201	137,994	-35,317	25,808	63,167	38,77															
22:35:15.743	COM8_115200	2000-0-0 0:31:7.230	0,404	-0,765	1,564	11,963	-0,183	8,850	2,164	-39,864	39,584	-48,158	62,258	41,300	36,00															
22:35:15.759	COM3_115200	2000-0-0 0:25:56.065	0,247	0,599	1,261	-4,578	3,357	-9,644	-33,003	-52,855	137,071	-35,408	25,633	62,967	38,72															
22:35:15.759	COM8_115200	2000-0-0 0:31:7.250	0,426	-0,783	1,570	11,047	-1,282	11,047	1,873	-39,567	39,776	-48,158	62,258	41,300	36,00															
22:35:15.790	COM8_115200	2000-0-0 0:31:7.270	0,425	-0,794	1,575	9,766	-1,038	11,780	1,555	-39,276	40,007	-48,158	62,258	41,300	35,98															
22:35:15.790	COM3_115200	2000-0-0 0:25:56.085	0,232	0,619	1,256	-4,578	5,859	-10,193	-31,800	-52,487	136,159	-35,392	25,358	62,850	38,67															
22:35:15.790	COM3_115200	2000-0-0 0:25:56.105	0,249	0,628	1,239	-3,967	6,714	-11,230	-30,580	-52,103	135,214	-35,492	25,175	62,833	38,68															
22:35:15.821	COM3_115200	2000-0-0 0:25:56.125	0,236	0,632	1,245	-2,991	4,700	-12,024	-29,372	-51,735	134,302	-35,492	24,983	62,792	38,69															
22:35:15.821	COM3_115200	2000-0-0 0:25:56.145	0,211	0,629	1,249	-2,686	1,343	-12,634	-28,191	-51,416	133,429	-35,542	24,725	62,858	38,72															
22:35:15.837	COM8_115200	2000-0-0 0:31:7.290	0,427	-0,791	1,573	8,545	0,488	12,695	1,203	-38,947	40,259	-48,158	62,258	41,300	36,04															
22:35:15.837	COM8_115200	2000-0-0 0:31:7.310	0,405	-0,794	1,563	5,981	-1,770	11,658	0,813	-38,644	40,496	-48,158	62,258	41,300	35,96															
22:35:15.852	COM3_115200	2000-0-0 0:25:56.165	0,203	0,612	1,263	-2,991	-3,723	-13,367	-27,076	-51,158	132,621	-35,508	24,583	62,758	38,73															
22:35:15.868	COM8_115200	2000-0-0 0:31:7.330	0,413	-0,788	1,564	4,150	-5,554	10,498	0,406	-38,403	40,699	-48,158	62,258	41,300	36,03															
22:35:15.868	COM8_115200	2000-0-0 0:31:7.350	0,467	-0,792	1,584	1,892	-12,634	13,428	-0,044	-38,276	40,935	-48,158	62,258	41,300	36,00															
22:35:15.868	COM3_115200	2000-0-0 0:25:56.185	0,232	0,623	1,254	-4,639	-7,446	-11,475	-26,093	-50,988	131,946	-35,400	24,425	62,650	38,76															
22:35:15.915	COM8_115200	2000-0-0 0:31:7.370	0,491	-0,789	1,605	1,465	-10,864	14,709	-0,577	-38,216	41,232	-48,158	62,258	41,300	35,97															
22:35:15.915	COM8_115200	2000-0-0 0:31:7.390	0,439	-0,829	1,569	3,845	-0,488	10,437	-1,005	-37,996	41,440	-48,158	62,258	41,300	35,99															
22:35:15.930	COM3_115200	2000-0-0 0:25:56.205	0,212	0,640	1,212	-4,578	-4,944	-8,484	-25,181	-50,768	131,320	-35,242	24,217	62,683	38,71															
22:35:15.930	COM8_115200	2000-0-0 0:31:7.410	0,459	-0,785	1,561	0,488	-4,089	6,958	-1,395	-37,733	41,567	-48,158	62,258	41,300	35,97															
22:35:15.930	COM3_115200	2000-0-0 0:25:56.225	0,258	0,626	1,192	-2,625	-3,418	-6,531	-24,258	-50,477	130,726	-35,033	23,992	62,617	38,75															
22:35:15.946	COM3_115200	2000-0-0 0:25:56.245	0,262	0,627	1,197	-0,854	0,793	-2,136	-23,395	-50,120	130,237	-34,875	23,808	62,533	38,80															
22:35:15.946	COM3_115200	2000-0-0 0:25:56.265	0,283	0,624	1,201	1,404	1,282	0,793	-22,549	-49,686	129,825	-34,708	23,708	62,492	38,76															
22:35:15.946	COM8_115200	2000-0-0 0:31:7.430	0,405	-0,806	1,560	-1,343	-1,831	2,502	-1,791	-37,518	41,589	-48,158	62,258	41,300	36,02															
22:35:15.961	COM8_115200	2000-0-0 0:31:7.450	0,384	-0,793	1,549	-1,709	2,625	-1,160	-2,115	-37,183	41,506	-48,158	62,258	41,300	36,00															
22:35:15.977	COM3_115200	2000-0-0 0:25:56.285	0,255	0,622	1,222	2,808	2,258	4,456	-21,764	-49,230	129,529	-34,617	23,592	62,525	38,73															
22:35:15.977	COM3_115200	2000-0-0 0:25:56.305	0,247	0,634	1,227	3,540	4,089	7,019	-21,028	-48,713	129,320	-34,617	23,575	62,533	38,76															
22:35:15.993	COM8_115200	2000-0-0 0:31:7.470	0,395	-0,801	1,555	-3,479	-0,427	-2,563	-2,433	-36,876	41,369	-48,158	62,258	41,300	36,03															
22:35:16.009	COM3_115200	2000-0-0 0:25:56.325	0,244	0,635	1,237	3,784	5,798	8,667	-20,336	-48,170	129,172	-34,683	23,617	62,517	38,75															
22:35:16.009	COM8_115200	2000-0-0 0:31:7.490	0,382	-0,798	1,565	-3,540	1,343	-4,150	-2,747	-36,584	41,199	-48,158	62,258	41,300	36,01															
22:35:16.024	COM8_115200	2000-0-0 0:31:7.510	0,382	-0,795	1,568	-3,540	3,845	-4,150	-3,043	-36,233	41,012	-48,158	62,258	41,300	35,98															
22:35:16.024	COM3_115200	2000-0-0 0:25:56.345	0,220	0,628	1,249	3,845	6,775	9,155	-19,660	-47,604	129,040	-34,775	23,725	62,650	38,66															
22:35:16.040	COM8_115200	2000-0-0 0:31:7.530	0,383	-0,795	1,575	-3,479	4,089	-4,211	-3,329	-35,859	40,814	-48,158	62,258	41,300	35,97															
22:35:16.055	COM3_115200	2000-0-0 0:25:56.365	0,224	0,613	1,254	3,967	7,751	8,728	-18,990	-47,010	128,903	-34,958	23,833	62,575	38,74															
22:35:16.072	COM3_115200	2000-0-0 0:25:56.385	0,216	0,617	1,248	3,906	7,019	9,094	-18,342	-46,428	128,793	-35,200	23,892	62,575	38,79															
22:35:16.075	COM8_115200	2000-0-0 0:31:7.550	0,397	-0,782	1,583	-3,601	1,831	-5,798	-3,609	-35,524	40,611	-48,158	62,258	41,300	36,00															
22:35:16.091	COM8_115200	2000-0-0 0:31:7.570	0,377	-0,793	1,584	-2,014	4,822	-6,165	-3,856	-35,178	40,369	-48,158	62,258	41,300	35,99															
22:35:16.095	COM3_115200	2000-0-0 0:25:56.405	0,232	0,614	1,255	3,967	5,554	8,423	-17,715	-45,868	128,705	-35,483	24,083	62,667	38,68															
22:35:16.112	COM3_115200	2000-0-0 0:25:56.425	0,209	0,607	1,258	3,540	5,310	7,202	-17,095	-45,335	128,611	-35,733	24,333	62,742	38,70															
22:35:16.127	COM8_115200	2000-0-0 0:31:7.590	0,385	-0,789	1,586	-2,380	4,028	-4,761	-4,081	-34,810	40,150	-48,158	62,258	41,300	35,95															
22:35:16.127	COM8_115200	2000-0-0 0:31:7.610	0,361	-0,792	1,589	-1,953	4,578	-3,601	-4,334	-34,453	39,963	-48,158	62,258	41,300	36,01															
22:35:16.127	COM3_115200	2000-0-0 0:25:56.445	0,225	0,610	1,262	2,319	3,967	4,822	-16,474	-44,824	128,480	-36,017	24,525	62,583	38,68															
22:35:16.143	COM3_115200	2000-0-0 0:25:56.465	0,214	0,605	1,259	0,977	3,052	2,502	-15,864	-44,368	128,315	-36,283	24,683	62,625	38,76															
22:35:16.143	COM8_115200	2000-0-0 0:31:7.630	0,339	-0,785	1,595	-2,197	2,502	-1,404	-4,609	-34,113	39,814	-48,158	62,258	41,300	36,00															
22:35:16.159	COM8_115200	2000-0-0 0:31:7.650	0,356	-0,771	1,616	-0,122	-0,793	1,892	-4,883	-33,816	39,738	-48,158	62,258	41,300	36,05															
22:35:16.174	COM3_115200	2000-0-0 0:25:56.485	0,219	0,607	1,255	-0,183	2,014	0,793	-15,255	-43,940	128,106	-36,500	24,842	62,433	38,70															
22:35:16.190	COM3_115200	2000-0-0 0:25:56.505	0,250	0,614	1,234	0,000	4,578	0,061	-14,639	-43,484	127,875	-36,683	25,000	62,300	38,67															
22:35:16.190	COM8_115200	2000-0-0 0:31:7.670	0,394	-0,776	1,619	1,526	-7,202	5,981	-5,186	-33,624	39,771	-48,158	62,258	41,300	36,00															
22:35:16.205	COM3_115200	2000-0-0 0:25:56.525	0,275	0,608	1,215	1,709	3,113	-0,854	-14,002	-43,050	127,628	-36,875	25,083	62,175	38,69															
22:35:16.205	COM8_115200	2000-0-0 0:31:7.690	0,390	-0,779	1,613	3,052	-7,141	7,507	-5,493	-33,492	39,880	-48,158	62,258	41,300	35,98															
22:35:16.221	COM8_115200	2000-0-0 0:31:7.710	0,401	-0,795	1,588	2,747	-8,057	7,996	-5,779	-33,327	40,007	-48,158	62,258	41,300	36,06															
22:35:16.221	COM3_115200	2000-0-0 0:25:56.545	0,297	0,622	1,224	2,441	3,113	-1,404	-13,343	-42,627	127,381	-37,017	25,133	62,208	38,69															
22:35:16.252	COM8_115200	2000-0-0 0:31:7.730	0,388	-0,803	1,552	2,380	-5,676	8,972	-6,092	-33,168	40,139	-48,158	62,258	41,300	36,01															
22:35:16.252	COM3_115200	2000-0-0 0:25:56.565	0,288	0,624	1,228	2,869	3,296	-1,831	-12,678	-42,215	127,139	-37,108	25,192	62,358	38,73															
22:35:16.299	COM8_115200	2000-0-0 0:31:7.750	0,399	-0,801	1,530	1,221	-5,981	8,179	-6,411	-33,003	40,270	-48,158	62,258	41,300	36,07															
22:35:16.299	COM8_115200	2000-0-0 0:31:7.770	0,411	-0,826	1,523	-0,549	-4,272	5,981	-6,735	-32,827	40,358	-48,158	62,258	41,300	36,04															
22:35:16.299	COM8_115200	2000-0-0 0:31:7.790	0,402	-0,821	1,543	-1,953	-3,601	4,333	-7,070	-32,635	40,402	-48,158	62,258	41,300	36,02															
22:35:16.315	COM3_115200	2000-0-0 0:25:56.585	0,284	0,603	1,236	3,113	2,319	-1,587	-12,019	-41,808	126,909	-37,167	25,258	62,300	38,76															
22:35:16.330	COM8_115200	2000-0-0 0:31:7.810	0,401	-0,812	1,568	-2,319	-0,427	1,343	-7,377	-32,410	40,375	-48,158	62,258	41,300	36,04															
22:35:16.330	COM3_115200	2000-0-0 0:25:56.605	0,269	0,593	1,242	2,563	3,418	-0,061	-11,398	-41,413	126,711	-37,233	25,242	62,200	38,73															
22:35:16.361	COM8_115200	2000-0-0 0:31:7.830	0,379	-0,800	1,579	-1,831	2,319	-1,343	-7,652	-32,141	40,281	-48,158	62,258	41,300	35,97															
22:35:16.361	COM3_115200	2000-0-0 0:25:56.625	0,252	0,599	1,249	1,648	2,869	1,648	-10,844	-41,001	126,563	-37,358	25,258	62,242	38,76															
22:35:16.377	COM3_115200	2000-0-0 0:25:56.645	0,239	0,601	1,252	1,526	3,357	2,808	-10,327	-40,583	126,469	-37,392	25,308	62,150	38,76															
22:35:16.377	COM3_115200	2000-0-0 0:25:56.665	0,225	0,607	1,253	1,526	2,808	2,869	-9,833	-40,182	126,398	-37,483	25,400	62,183	38,61															
22:35:16.377	COM3_115200	2000-0-0 0:25:56.685	0,238	0,616	1,259	1,038	2,502	2,258	-9,349	-39,787	126,321	-37,592	25,425	62,225	38,73															
22:35:16.393	COM8_115200	2000-0-0 0:31:7.850	0,392	-0,825	1,578	-1,282	4,211	-3,418	-7,866	-31,827	40,117	-48,158	62,258	41,300	36,03															
22:35:16.393	COM8_115200	2000-0-0 0:31:7.870	0,391	-0,804	1,579	-1,282	5,310	-3,723	-8,064	-31,492	39,935	-48,158	62,258	41,300	36,03															
22:35:16.409	COM3_115200	2000-0-0 0:25:56.705	0,249	0,615	1,249	0,671	3,174	1,953	-8,871	-39,386	126,233	-37,717	25,567	62,300	38,70															
22:35:16.409	COM3_115200	2000-0-0 0:25:56.725	0,271	0,605	1,239	0,977	3,235	2,014	-8,399	-38,979	126,145	-37,858	25,658	62,292	38,66															
22:35:16.409	COM8_115200	2000-0-0 0:31:7.890	0,396	-0,817	1,573	-2,380	5,676	-4,822	-8,262	-31,157	39,732	-48,158	62,258	41,300	35,99															
22:35:16.424	COM8_115200	2000-0-0 0:31:7.910	0,387	-0,806	1,573	-3,052	6,226	-5,737	-8,465	-30,811	39,501	-48,158	62,258	41,300	36,05															
22:35:16.424	COM3_115200	2000-0-0 0:25:56.745	0,271	0,611	1,232	1,587	4,211	2,502	-7,932	-38,573	126,079	-37,967	25,650	62,300	38,73															
22:35:16.440	COM8_115200	2000-0-0 0:31:7.930	0,375	-0,804	1,572	-3,540	5,859	-6,531	-8,663	-30,476	39,249	-48,158	62,258	41,300	36,00															
22:35:16.455	COM3_115200	2000-0-0 0:25:56.765	0,265	0,608	1,232	2,441	4,028	3,235	-7,465	-38,167	126,030	-38,042	25,600	62,292	38,72															
22:35:16.471	COM3_115200	2000-0-0 0:25:56.785	0,263	0,607	1,230	2,869	4,089	3,296	-6,998	-37,755	125,997	-38,100	25,683	62,308	38,74															
22:35:16.471	COM8_115200	2000-0-0 0:31:7.950	0,358	-0,801	1,572	-3,906	4,272	-6,592	-8,871	-30,168	38,996	-48,158	62,258	41,300	36,00															
22:35:16.487	COM3_115200	2000-0-0 0:25:56.805	0,271	0,614	1,229	3,113	5,127	3,296	-6,531	-37,343	125,969	-38,275	25,792	62,342	38,66															
22:35:16.487	COM8_115200	2000-0-0 0:31:7.970	0,375	-0,792	1,577	-3,906	2,197	-4,517	-9,091	-29,899	38,771	-48,158	62,258	41,300	36,07															
22:35:16.502	COM3_115200	2000-0-0 0:25:56.825	0,268	0,615	1,227	3,906	6,592	3,174	-6,064	-36,909	125,942	-38,425	25,917	62,350	38,69															
22:35:16.518	COM8_115200	2000-0-0 0:31:7.990	0,378	-0,784	1,592	-4,822	-3,540	-2,380	-9,355	-29,718	38,622	-48,158	62,258	41,300	35,95															
22:35:16.518	COM3_115200	2000-0-0 0:25:56.845	0,277	0,603	1,219	4,639	7,263	3,479	-5,587	-36,458	125,920	-38,633	26,067	62,358	38,72															
22:35:16.533	COM8_115200	2000-0-0 0:31:8.010	0,379	-0,772	1,590	-3,174	-4,761	-2,869	-9,613	-29,586	38,491	-48,158	62,258	41,300	36,04															
22:35:16.549	COM8_115200	2000-0-0 0:31:8.030	0,442	-0,770	1,582	-2,380	-13,062	-2,869	-9,833	-29,559	38,364	-48,158	62,258	41,300	35,94															
22:35:16.549	COM3_115200	2000-0-0 0:25:56.865	0,295	0,606	1,212	6,104	7,080	3,784	-5,098	-36,019	125,920	-38,875	26,300	62,450	38,73															
22:35:16.565	COM3_115200	2000-0-0 0:25:56.885	0,315	0,600	1,209	8,240	9,827	4,700	-4,587	-35,541	125,936	-39,108	26,458	62,367	38,72															
22:35:16.580	COM8_115200	2000-0-0 0:31:8.050	0,441	-0,779	1,571	-3,662	-17,212	-0,061	-10,107	-29,669	38,304	-48,158	62,258	41,300	35,97															
22:35:16.580	COM3_115200	2000-0-0 0:25:56.905	0,342	0,600	1,191	11,414	10,681	6,348	-4,048	-35,035	125,991	-39,408	26,608	62,325	38,73															
22:35:16.596	COM8_115200	2000-0-0 0:31:8.070	0,437	-0,785	1,542	-3,967	-14,282	1,465	-10,415	-29,756	38,315	-48,158	62,258	41,300	35,99															
22:35:16.596	COM3_115200	2000-0-0 0:25:56.925	0,351	0,590	1,194	14,648	8,606	7,324	-3,472	-34,568	126,085	-39,692	26,917	62,167	38,69															
22:35:16.611	COM8_115200	2000-0-0 0:31:8.090	0,399	-0,773	1,509	-7,568	-12,329	-2,441	-10,750	-29,789	38,282	-48,158	62,258	41,300	36,04															
22:35:16.658	COM8_115200	2000-0-0 0:31:8.110	0,453	-0,805	1,481	-10,864	-9,766	-4,456	-11,107	-29,806	38,167	-48,158	62,258	41,300	35,97															
22:35:16.658	COM8_115200	2000-0-0 0:31:8.130	0,427	-0,821	1,478	-15,503	-7,446	-9,033	-11,514	-29,800	37,963	-48,158	62,258	41,300	35,99															
22:35:16.658	COM3_115200	2000-0-0 0:25:56.945	0,337	0,596	1,198	16,907	7,385	9,094	-2,873	-34,135	126,227	-39,975	27,183	62,375	38,73															
22:35:16.674	COM8_115200	2000-0-0 0:31:8.150	0,390	-0,848	1,468	-17,090	-0,122	-13,428	-11,904	-29,707	37,628	-48,158	62,258	41,300	35,98															
22:35:16.674	COM3_115200	2000-0-0 0:25:56.965	0,340	0,597	1,241	18,005	2,686	11,230	-2,280	-33,788	126,425	-40,233	27,608	62,517	38,68															
22:35:16.674	COM3_115200	2000-0-0 0:25:56.985	0,335	0,593	1,230	18,616	3,784	13,672	-1,714	-33,475	126,683	-40,442	28,125	62,633	38,65															
22:35:16.690	COM3_115200	2000-0-0 0:25:57.005	0,313	0,605	1,203	20,447	5,310	17,334	-1,176	-33,140	127,035	-40,692	28,750	62,658	38,73															
22:35:16.690	COM8_115200	2000-0-0 0:31:8.170	0,482	-0,810	1,490	-22,156	-5,371	-17,212	-12,310	-29,608	37,211	-48,158	62,258	41,300	36,04															
22:35:16.712	COM8_115200	2000-0-0 0:31:8.190	0,446	-0,814	1,513	-22,949	-2,869	-23,621	-12,744	-29,597	36,694	-48,158	62,258	41,300	35,97															
22:35:16.712	COM3_115200	2000-0-0 0:25:57.025	0,331	0,606	1,198	23,499	7,141	18,494	-0,621	-32,761	127,430	-40,975	29,425	62,767	38,73															
22:35:16.728	COM3_115200	2000-0-0 0:25:57.045	0,412	0,584	1,162	27,161	11,169	20,996	-0,016	-32,349	127,870	-41,267	30,167	62,817	38,75															
22:35:16.728	COM8_115200	2000-0-0 0:31:8.210	0,454	-0,820	1,511	-20,447	6,714	-31,860	-13,019	-29,454	35,958	-48,158	62,258	41,300	35,97															
22:35:16.743	COM3_115200	2000-0-0 0:25:57.065	0,312	0,588	1,127	32,227	24,841	25,635	0,615	-31,750	128,408	-41,783	31,033	62,983	38,75															
22:35:16.759	COM8_115200	2000-0-0 0:31:8.230	0,473	-0,810	1,508	-21,118	7,568	-39,063	-13,195	-29,290	35,035	-48,158	62,258	41,300	36,01															
22:35:16.759	COM3_115200	2000-0-0 0:25:57.085	0,406	0,555	1,148	38,208	30,029	29,907	1,296	-30,938	129,067	-42,367	32,067	63,025	38,71															
22:35:16.775	COM8_115200	2000-0-0 0:31:8.250	0,464	-0,823	1,508	-20,935	8,545	-45,166	-13,304	-29,136	33,975	-48,158	62,258	41,300	35,99															
22:35:16.790	COM3_115200	2000-0-0 0:25:57.105	0,411	0,485	1,130	42,236	30,518	35,217	2,027	-30,201	129,853	-43,100	33,183	63,008	38,76															
22:35:16.790	COM8_115200	2000-0-0 0:31:8.270	0,405	-0,832	1,485	-20,935	15,991	-53,406	-13,326	-28,938	32,723	-48,158	62,258	41,300	36,06															
22:35:16.806	COM8_115200	2000-0-0 0:31:8.290	0,457	-0,753	1,469	-19,531	25,818	-57,495	-13,244	-28,564	31,278	-48,158	62,258	41,300	35,96															
22:35:16.806	COM3_115200	2000-0-0 0:25:57.125	0,531	0,500	1,074	45,349	37,720	36,072	2,774	-29,339	130,699	-44,042	34,542	63,017	38,70															
22:35:16.821	COM3_115200	2000-0-0 0:25:57.145	0,661	0,491	1,076	50,903	46,509	38,635	3,587	-28,400	131,605	-45,050	35,983	63,142	38,75															
22:35:16.821	COM8_115200	2000-0-0 0:31:8.310	0,519	-0,719	1,476	-25,330	7,507	-52,429	-13,271	-28,339	29,921	-48,158	62,258	41,300	36,01															
22:35:16.853	COM8_115200	2000-0-0 0:31:8.330	0,579	-0,685	1,506	-28,442	-9,094	-47,791	-13,475	-28,455	28,790	-48,158	62,258	41,300	36,00															
22:35:16.853	COM3_115200	2000-0-0 0:25:57.165	0,498	0,472	1,012	54,932	83,984	45,837	4,427	-26,960	132,704	-46,258	37,667	63,008	38,68															
22:35:16.868	COM3_115200	2000-0-0 0:25:57.185	0,541	0,409	1,049	58,655	84,595	49,683	5,290	-25,219	133,956	-47,833	39,508	62,767	38,61															
22:35:16.868	COM8_115200	2000-0-0 0:31:8.350	0,600	-0,658	1,522	-28,381	-13,184	-49,011	-13,727	-28,768	27,729	-48,158	62,258	41,300	35,99															
22:35:16.884	COM3_115200	2000-0-0 0:25:57.205	0,548	0,331	1,071	59,509	80,933	49,927	6,163	-23,621	135,280	-49,742	41,608	62,258	38,70															
22:35:16.900	COM8_115200	2000-0-0 0:31:8.370	0,512	-0,664	1,462	-27,161	-10,254	-54,260	-13,898	-29,092	26,559	-48,158	62,258	41,300	36,00															
22:35:16.900	COM8_115200	2000-0-0 0:31:8.390	0,570	-0,652	1,408	-31,250	-18,372	-53,650	-14,073	-29,471	25,384	-48,158	62,258	41,300	36,05															
22:35:16.915	COM3_115200	2000-0-0 0:25:57.225	0,413	0,334	1,158	58,044	70,984	50,476	7,048	-22,214	136,609	-51,908	43,942	61,492	38,74															
22:35:16.931	COM8_115200	2000-0-0 0:31:8.410	0,633	-0,595	1,429	-34,790	-27,832	-52,002	-14,376	-30,042	24,302	-48,158	62,258	41,300	36,00															
22:35:16.931	COM3_115200	2000-0-0 0:25:57.245	0,581	0,337	1,197	59,143	47,729	49,011	7,938	-21,187	137,900	-54,092	46,225	60,692	38,73															
22:35:16.946	COM3_115200	2000-0-0 0:25:57.265	0,594	0,343	1,245	56,946	35,156	51,636	8,822	-20,621	139,147	-56,042	48,633	60,042	38,77															
22:35:16.946	COM8_115200	2000-0-0 0:31:8.430	0,659	-0,614	1,404	-38,025	-24,231	-54,810	-14,716	-30,685	23,209	-48,158	62,258	41,300	36,02															
22:35:16.978	COM8_115200	2000-0-0 0:31:8.450	0,666	-0,612	1,370	-38,696	-13,977	-58,594	-14,991	-31,152	21,978	-48,158	62,258	41,300	35,95															
22:35:16.978	COM8_115200	2000-0-0 0:31:8.470	0,713	-0,613	1,354	-42,603	-10,681	-63,416	-15,238	-31,553	20,599	-48,158	62,258	41,300	35,98															
22:35:16.993	COM3_115200	2000-0-0 0:25:57.285	0,606	0,365	1,253	56,091	44,983	51,941	9,641	-19,984	140,438	-57,625	51,067	59,383	38,70															
22:35:17.009	COM8_115200	2000-0-0 0:31:8.490	0,663	-0,584	1,333	-47,119	-2,808	-68,298	-15,491	-31,899	19,105	-48,158	62,258	41,300	35,98															
22:35:17.040	COM8_115200	2000-0-0 0:31:8.510	0,730	-0,551	1,321	-47,424	8,728	-71,777	-15,656	-32,036	17,413	-48,158	62,258	41,300	35,97															
22:35:17.040	COM3_115200	2000-0-0 0:25:57.305	0,573	0,356	1,245	56,702	52,979	53,894	10,443	-19,221	141,790	-59,125	53,600	58,642	38,75															
22:35:17.056	COM3_115200	2000-0-0 0:25:57.325	0,450	0,334	1,247	56,946	53,528	54,260	11,239	-18,386	143,201	-60,517	56,125	57,850	38,76															
22:35:17.056	COM3_115200	2000-0-0 0:25:57.345	0,588	0,260	1,272	58,960	11,902	49,377	12,096	-18,078	144,443	-61,917	58,708	57,083	38,72															
22:35:17.056	COM3_115200	2000-0-0 0:25:57.365	0,582	0,276	1,324	59,326	-6,714	46,631	13,013	-18,402	145,497	-62,900	61,250	56,483	38,68															
22:35:17.056	COM3_115200	2000-0-0 0:25:57.385	0,548	0,258	1,267	60,181	-4,028	44,006	13,947	-18,765	146,459	-63,475	63,833	55,975	38,69															
22:35:17.071	COM8_115200	2000-0-0 0:31:8.530	0,712	-0,549	1,346	-51,758	16,113	-72,693	-15,853	-32,064	15,645	-48,158	62,258	41,300	36,00															
22:35:17.071	COM8_115200	2000-0-0 0:31:8.550	0,739	-0,541	1,333	-55,054	26,733	-74,829	-16,057	-31,943	13,782	-48,158	62,258	41,300	35,97															
22:35:17.087	COM3_115200	2000-0-0 0:25:57.405	0,593	0,235	1,255	61,279	-5,432	43,274	14,886	-19,116	147,387	-63,700	66,383	55,625	38,73															
22:35:17.087	COM8_115200	2000-0-0 0:31:8.570	0,549	-0,507	1,306	-59,082	39,490	-78,613	-16,271	-31,608	11,777	-48,158	62,258	41,300	36,10															
22:35:17.110	COM3_115200	2000-0-0 0:25:57.425	0,604	0,196	1,260	62,073	-6,287	42,297	15,831	-19,523	148,277	-63,725	68,817	55,283	38,72															
22:35:17.115	COM8_115200	2000-0-0 0:31:8.590	0,688	-0,467	1,441	-54,138	39,246	-82,764	-16,381	-31,146	9,635	-48,158	62,258	41,300	36,01															
22:35:17.130	COM3_115200	2000-0-0 0:25:57.445	0,619	0,145	1,255	61,401	-9,888	42,236	16,743	-19,957	149,156	-63,542	71,267	55,008	38,69															
22:35:17.132	COM8_115200	2000-0-0 0:31:8.610	0,724	-0,386	1,381	-60,974	46,692	-77,393	-16,573	-30,652	7,548	-48,158	62,258	41,300	36,04															
22:35:17.144	COM3_115200	2000-0-0 0:25:57.465	0,611	0,100	1,202	61,707	-12,451	40,955	17,644	-20,468	149,969	-63,283	73,642	54,833	38,75															
22:35:17.144	COM8_115200	2000-0-0 0:31:8.630	0,716	-0,391	1,326	-60,425	61,096	-78,735	-16,782	-29,976	5,416	-48,158	62,258	41,300	35,95															
22:35:17.160	COM3_115200	2000-0-0 0:25:57.485	0,592	0,066	1,246	61,768	-4,578	39,124	18,523	-20,923	150,782	-62,883	75,950	54,625	38,71															
22:35:17.176	COM8_115200	2000-0-0 0:31:8.650	0,533	-0,441	1,291	-66,101	65,735	-81,665	-17,007	-29,136	3,164	-48,158	62,258	41,300	36,02															
22:35:17.191	COM3_115200	2000-0-0 0:25:57.505	0,579	0,015	1,277	60,120	1,404	35,156	19,352	-21,209	151,584	-62,408	78,275	54,325	38,65															
22:35:17.191	COM8_115200	2000-0-0 0:31:8.670	0,474	-0,397	1,513	-50,476	68,787	-71,411	-17,133	-28,290	1,011	-48,158	62,258	41,300	35,94															
22:35:17.207	COM3_115200	2000-0-0 0:25:57.525	0,600	-0,017	1,243	58,228	-4,578	30,334	20,149	-21,522	152,276	-61,942	80,542	54,050	38,73															
22:35:17.207	COM8_115200	2000-0-0 0:31:8.690	0,760	-0,197	1,493	-67,627	33,081	-68,359	-17,479	-27,713	-0,829	-48,158	62,258	41,300	36,04															
22:35:17.223	COM3_115200	2000-0-0 0:25:57.545	0,618	-0,043	1,176	57,190	-7,751	25,085	20,945	-21,874	152,814	-61,483	82,750	53,642	38,75															
22:35:17.223	COM8_115200	2000-0-0 0:31:8.710	0,708	-0,227	1,479	-59,387	48,218	-65,063	-17,985	-27,356	-2,543	-48,158	62,258	41,300	35,99															
22:35:17.238	COM3_115200	2000-0-0 0:25:57.565	0,556	-0,090	1,181	57,983	-7,935	21,179	21,747	-22,247	153,265	-60,917	84,833	53,192	38,73															
22:35:17.254	COM8_115200	2000-0-0 0:31:8.730	0,682	-0,260	1,439	-46,692	56,702	-69,641	-18,138	-26,614	-4,438	-48,158	62,258	41,300	36,00															
22:35:17.270	COM3_115200	2000-0-0 0:25:57.585	0,493	-0,127	1,192	57,739	-6,653	17,578	22,549	-22,577	153,638	-60,442	86,783	52,867	38,68															
22:35:17.270	COM8_115200	2000-0-0 0:31:8.750	0,692	-0,190	1,482	-49,133	27,283	-60,974	-18,276	-26,246	-6,097	-48,158	62,258	41,300	35,97															
22:35:17.285	COM3_115200	2000-0-0 0:25:57.605	0,596	-0,139	1,203	58,411	-18,127	16,663	23,351	-22,989	153,940	-59,942	88,642	52,442	38,68															
22:35:17.301	COM8_115200	2000-0-0 0:31:8.770	0,816	-0,118	1,517	-49,622	8,423	-61,523	-18,605	-26,384	-7,504	-48,158	62,258	41,300	36,03															
22:35:17.301	COM8_115200	2000-0-0 0:31:8.790	0,754	-0,071	1,506	-41,809	19,653	-59,753	-18,820	-26,461	-8,926	-48,158	62,258	41,300	35,94															
22:35:17.316	COM3_115200	2000-0-0 0:25:57.625	0,563	-0,139	1,175	59,753	-16,846	15,015	24,214	-23,505	154,100	-59,383	90,525	51,983	38,72															
22:35:17.316	COM3_115200	2000-0-0 0:25:57.645	0,583	-0,144	1,191	59,937	-12,024	16,418	25,016	-23,884	154,358	-58,767	92,258	51,558	38,69															
22:35:17.332	COM8_115200	2000-0-0 0:31:8.810	0,823	-0,060	1,511	-35,400	19,226	-55,176	-18,825	-26,378	-10,322	-48,158	62,258	41,300	35,97															
22:35:17.348	COM3_115200	2000-0-0 0:25:57.665	0,613	-0,145	1,196	60,730	-8,972	17,090	25,801	-24,252	154,644	-58,175	94,075	51,067	38,74															
22:35:17.348	COM8_115200	2000-0-0 0:31:8.830	0,875	-0,026	1,480	-39,734	0,061	-50,415	-18,951	-26,598	-11,492	-48,158	62,258	41,300	36,00															
22:35:17.394	COM8_115200	2000-0-0 0:31:8.850	0,798	0,015	1,458	-33,875	7,813	-49,988	-19,045	-26,845	-12,601	-48,158	62,258	41,300	35,95															
22:35:17.394	COM8_115200	2000-0-0 0:31:8.870	0,835	0,013	1,502	-30,701	2,258	-47,424	-19,017	-27,054	-13,711	-48,158	62,258	41,300	35,99															
22:35:17.410	COM3_115200	2000-0-0 0:25:57.685	0,608	-0,184	1,168	62,439	-5,554	19,165	26,559	-24,565	154,995	-57,675	95,783	50,408	38,75															
22:35:17.410	COM3_115200	2000-0-0 0:25:57.705	0,592	-0,203	1,172	63,782	-0,732	21,362	27,301	-24,824	155,435	-57,117	97,425	49,725	38,70															
22:35:17.410	COM3_115200	2000-0-0 0:25:57.725	0,579	-0,241	1,197	66,528	-3,906	21,851	28,054	-25,104	155,891	-56,583	99,158	48,892	38,71															
22:35:17.426	COM8_115200	2000-0-0 0:31:8.890	0,884	0,047	1,500	-35,889	-7,446	-43,762	-19,094	-27,449	-14,656	-48,158	62,258	41,300	36,05															
22:35:17.426	COM8_115200	2000-0-0 0:31:8.910	0,914	0,079	1,451	-36,499	-3,479	-44,312	-19,221	-27,850	-15,573	-48,158	62,258	41,300	36,08															
22:35:17.441	COM3_115200	2000-0-0 0:25:57.745	0,605	-0,230	1,227	66,895	2,441	23,132	28,784	-25,356	156,390	-56,050	100,942	48,092	38,69															
22:35:17.441	COM8_115200	2000-0-0 0:31:8.930	0,838	0,080	1,384	-36,621	3,845	-44,556	-19,292	-28,136	-16,556	-48,158	62,258	41,300	35,97															
22:35:17.457	COM3_115200	2000-0-0 0:25:57.765	0,619	-0,262	1,188	68,542	5,554	24,048	29,493	-25,532	156,962	-55,633	102,725	47,158	38,78															
22:35:17.457	COM3_115200	2000-0-0 0:25:57.785	0,594	-0,279	1,208	69,641	8,728	26,123	30,179	-25,681	157,588	-55,233	104,458	46,008	38,70															
22:35:17.473	COM8_115200	2000-0-0 0:31:8.950	0,789	0,093	1,444	-37,781	-1,526	-47,852	-19,325	-28,422	-17,600	-48,158	62,258	41,300	36,00															
22:35:17.488	COM3_115200	2000-0-0 0:25:57.805	0,604	-0,297	1,251	69,397	15,442	30,273	30,800	-25,779	158,346	-54,758	106,192	44,917	38,69															
22:35:17.488	COM8_115200	2000-0-0 0:31:8.970	0,902	0,121	1,451	-44,800	-13,367	-44,922	-19,490	-28,916	-18,545	-48,158	62,258	41,300	36,03															
22:35:17.504	COM3_115200	2000-0-0 0:25:57.825	0,580	-0,343	1,258	70,801	22,705	32,349	31,360	-25,801	159,219	-54,333	108,017	43,942	38,69															
22:35:17.504	COM8_115200	2000-0-0 0:31:8.990	1,008	0,143	1,392	-52,795	-7,935	-44,556	-19,830	-29,471	-19,435	-48,158	62,258	41,300	35,95															
22:35:17.519	COM3_115200	2000-0-0 0:25:57.845	0,630	-0,339	1,274	71,533	34,607	31,860	31,855	-25,631	160,241	-54,008	109,792	42,742	38,80															
22:35:17.535	COM8_115200	2000-0-0 0:31:9.010	1,130	0,170	1,268	-57,861	7,324	-50,293	-20,143	-29,751	-20,517	-48,158	62,258	41,300	35,97															
22:35:17.535	COM3_115200	2000-0-0 0:25:57.865	0,654	-0,355	1,287	73,425	36,438	28,931	32,360	-25,356	161,290	-53,792	111,592	41,108	38,73															
22:35:17.551	COM8_115200	2000-0-0 0:31:9.030	0,571	0,201	1,229	-70,190	8,606	-59,082	-20,561	-29,993	-21,813	-48,158	62,258	41,300	35,97															
22:35:17.566	COM3_115200	2000-0-0 0:25:57.885	0,671	-0,358	1,303	73,242	25,024	31,982	32,899	-25,170	162,257	-53,675	113,367	39,358	38,73															
22:35:17.566	COM8_115200	2000-0-0 0:31:9.050	0,925	0,207	1,533	-70,435	-11,230	-68,176	-20,945	-30,564	-23,236	-48,158	62,258	41,300	35,97															
22:35:17.582	COM3_115200	2000-0-0 0:25:57.905	0,517	-0,412	1,268	75,684	11,719	33,081	33,514	-25,296	163,087	-53,458	115,117	37,608	38,76															
22:35:17.582	COM8_115200	2000-0-0 0:31:9.070	1,012	0,232	1,463	-89,905	-11,230	-49,988	-21,714	-31,212	-24,384	-48,158	62,258	41,300	36,02															
22:35:17.629	COM8_115200	2000-0-0 0:31:9.090	0,772	0,210	1,421	-75,012	31,555	-62,927	-22,308	-31,371	-25,774	-48,158	62,258	41,300	35,98															
22:35:17.629	COM3_115200	2000-0-0 0:25:57.925	0,489	-0,399	1,280	77,515	5,615	31,738	34,184	-25,538	163,828	-53,150	116,917	35,692	38,70															
22:35:17.629	COM8_115200	2000-0-0 0:31:9.110	0,770	0,252	1,466	-80,078	23,315	-67,261	-22,604	-31,328	-27,532	-48,158	62,258	41,300	36,00															
22:35:17.629	COM3_115200	2000-0-0 0:25:57.945	0,500	-0,381	1,316	78,674	-2,136	29,297	34,931	-25,884	164,432	-52,767	118,667	33,950	38,70															
22:35:17.644	COM3_115200	2000-0-0 0:25:57.965	0,503	-0,423	1,315	79,102	0,488	28,748	35,689	-26,230	164,993	-52,108	120,367	32,125	38,56															
22:35:17.644	COM8_115200	2000-0-0 0:31:9.130	0,771	0,247	1,503	-84,778	12,939	-63,782	-23,121	-31,575	-29,108	-48,158	62,258	41,300	35,91															
22:35:17.660	COM3_115200	2000-0-0 0:25:57.985	0,464	-0,473	1,322	80,750	7,263	26,917	36,431	-26,455	165,613	-51,458	122,000	30,308	38,66															
22:35:17.676	COM8_115200	2000-0-0 0:31:9.150	0,700	0,257	1,538	-79,834	20,020	-66,956	-23,577	-31,783	-30,707	-48,158	62,258	41,300	36,05															
22:35:17.691	COM3_115200	2000-0-0 0:25:58.005	0,449	-0,483	1,381	81,238	9,216	25,208	37,161	-26,592	166,256	-50,767	123,667	28,542	38,75															
22:35:17.691	COM8_115200	2000-0-0 0:31:9.170	0,699	0,291	1,565	-77,820	23,865	-65,186	-23,873	-31,866	-32,410	-48,158	62,258	41,300	35,97															
22:35:17.711	COM3_115200	2000-0-0 0:25:58.025	0,517	-0,500	1,417	78,674	12,085	22,522	37,859	-26,669	166,877	-50,075	125,217	26,725	38,71															
22:35:17.714	COM8_115200	2000-0-0 0:31:9.190	0,666	0,287	1,565	-74,524	21,057	-65,125	-24,170	-31,976	-34,047	-48,158	62,258	41,300	35,96															
22:35:17.728	COM3_115200	2000-0-0 0:25:58.045	0,536	-0,554	1,415	75,439	14,954	22,705	38,458	-26,675	167,542	-49,458	126,758	24,733	38,73															
22:35:17.760	COM8_115200	2000-0-0 0:31:9.210	0,620	0,370	1,594	-74,036	10,742	-65,002	-24,412	-32,179	-35,645	-48,158	62,258	41,300	36,03															
22:35:17.760	COM8_115200	2000-0-0 0:31:9.230	0,639	0,346	1,627	-69,214	8,484	-60,059	-24,664	-32,498	-37,101	-48,158	62,258	41,300	35,92															
22:35:17.760	COM3_115200	2000-0-0 0:25:58.065	0,543	-0,608	1,417	72,693	14,587	24,170	38,979	-26,691	168,223	-48,875	128,200	22,575	38,73															
22:35:17.775	COM3_115200	2000-0-0 0:25:58.085	0,430	-0,649	1,445	70,313	15,259	27,039	39,408	-26,724	168,953	-48,292	129,508	20,467	38,74															
22:35:17.775	COM8_115200	2000-0-0 0:31:9.250	0,789	0,360	1,611	-61,462	20,447	-55,664	-24,785	-32,618	-38,529	-48,158	62,258	41,300	36,03															
22:35:17.791	COM3_115200	2000-0-0 0:25:58.105	0,465	-0,599	1,535	65,125	17,456	23,926	39,738	-26,719	169,711	-47,650	130,758	18,425	38,78															
22:35:17.791	COM8_115200	2000-0-0 0:31:9.270	0,629	0,438	1,560	-57,983	29,114	-54,932	-24,747	-32,470	-40,029	-48,158	62,258	41,300	36,02															
22:35:17.807	COM3_115200	2000-0-0 0:25:58.125	0,480	-0,695	1,492	64,026	13,733	20,508	40,045	-26,702	170,343	-47,108	131,808	16,483	38,72															
22:35:17.807	COM8_115200	2000-0-0 0:31:9.290	0,575	0,527	1,608	-53,040	17,212	-59,204	-24,593	-32,448	-41,556	-48,158	62,258	41,300	35,99															
22:35:17.822	COM3_115200	2000-0-0 0:25:58.145	0,545	-0,664	1,555	60,303	13,916	23,193	40,287	-26,675	171,008	-46,575	132,867	14,600	38,76															
22:35:17.822	COM8_115200	2000-0-0 0:31:9.310	0,749	0,528	1,645	-55,969	-1,282	-52,612	-24,549	-32,728	-42,847	-48,158	62,258	41,300	35,93															
22:35:17.838	COM3_115200	2000-0-0 0:25:58.165	0,582	-0,723	1,505	61,340	4,272	25,574	40,507	-26,785	171,617	-46,067	133,858	12,825	38,70															
22:35:17.854	COM8_115200	2000-0-0 0:31:9.330	0,617	0,529	1,633	-51,086	2,991	-50,659	-24,560	-33,025	-43,989	-48,158	62,258	41,300	35,99															
22:35:17.869	COM8_115200	2000-0-0 0:31:9.350	0,702	0,574	1,650	-43,762	14,343	-48,218	-24,324	-33,162	-45,225	-48,158	62,258	41,300	36,05															
22:35:17.869	COM3_115200	2000-0-0 0:25:58.185	0,467	-0,720	1,525	61,890	-0,610	29,358	40,781	-27,048	172,178	-45,442	134,767	11,033	38,76															
22:35:17.885	COM8_115200	2000-0-0 0:31:9.370	0,626	0,699	1,637	-45,959	5,859	-49,500	-24,109	-33,278	-46,428	-48,158	62,258	41,300	35,92															
22:35:17.885	COM3_115200	2000-0-0 0:25:58.205	0,531	-0,650	1,575	60,181	-4,700	29,602	41,023	-27,378	172,722	-44,775	135,508	9,217	38,76															
22:35:17.900	COM3_115200	2000-0-0 0:25:58.225	0,607	-0,703	1,563	59,509	-9,460	30,090	41,287	-27,806	173,172	-44,075	136,208	7,625	38,75															
22:35:17.900	COM8_115200	2000-0-0 0:31:9.390	0,702	0,742	1,729	-46,631	-4,150	-49,744	-23,912	-33,541	-47,565	-48,158	62,258	41,300	35,96															
22:35:17.916	COM3_115200	2000-0-0 0:25:58.245	0,623	-0,754	1,555	59,570	-4,456	32,959	41,495	-28,224	173,699	-43,325	136,850	6,142	38,61															
22:35:17.963	COM3_115200	2000-0-0 0:25:58.265	0,462	-0,783	1,573	61,096	1,160	40,710	41,616	-28,630	174,435	-42,425	137,533	4,583	38,73															
22:35:17.963	COM3_115200	2000-0-0 0:25:58.285	0,460	-0,781	1,659	66,772	-16,113	43,701	41,830	-29,235	175,122	-41,458	138,142	2,950	38,73															
22:35:17.963	COM8_115200	2000-0-0 0:31:9.410	0,735	0,699	1,703	-50,293	-11,780	-44,312	-23,851	-33,970	-48,538	-48,158	62,258	41,300	36,01															
22:35:17.963	COM8_115200	2000-0-0 0:31:9.430	0,654	0,739	1,728	-50,232	-7,446	-47,607	-23,802	-34,382	-49,537	-48,158	62,258	41,300	35,98															
22:35:17.963	COM8_115200	2000-0-0 0:31:9.450	0,704	0,771	1,723	-54,565	-15,747	-47,852	-23,752	-34,827	-50,559	-48,158	62,258	41,300	35,97															
22:35:17.978	COM3_115200	2000-0-0 0:25:58.305	0,453	-0,782	1,654	69,458	-21,912	46,570	42,182	-30,048	175,677	-40,333	138,692	1,275	38,71															
22:35:17.978	COM8_115200	2000-0-0 0:31:9.470	0,458	0,812	1,710	-61,218	-20,447	-47,913	-23,873	-35,414	-51,493	-48,158	62,258	41,300	36,00															
22:35:17.994	COM3_115200	2000-0-0 0:25:58.325	0,399	-0,818	1,625	72,876	-18,799	48,645	42,534	-30,861	176,320	-39,133	139,242	-0,433	38,72															
22:35:18.010	COM8_115200	2000-0-0 0:31:9.490	0,668	0,720	1,769	-57,495	-17,151	-48,096	-23,934	-35,975	-52,509	-48,158	62,258	41,300	36,04															
22:35:18.025	COM3_115200	2000-0-0 0:25:58.345	0,390	-0,746	1,681	76,782	-17,944	47,913	42,929	-31,635	177,012	-37,858	139,800	-2,108	38,71															
22:35:18.025	COM8_115200	2000-0-0 0:31:9.510	0,554	0,700	1,798	-58,777	-13,367	-47,913	-23,983	-36,458	-53,503	-48,158	62,258	41,300	36,00															
22:35:18.041	COM3_115200	2000-0-0 0:25:58.365	0,241	-0,667	1,754	77,332	-23,682	44,922	43,418	-32,437	177,616	-36,600	140,325	-3,833	38,72															
22:35:18.041	COM8_115200	2000-0-0 0:31:9.530	0,481	0,760	1,783	-53,894	-9,827	-53,833	-23,846	-36,848	-54,690	-48,158	62,258	41,300	36,00															
22:35:18.057	COM3_115200	2000-0-0 0:25:58.385	0,346	-0,667	1,782	75,439	-30,212	41,443	43,929	-33,278	178,099	-35,317	140,733	-5,658	38,69															
22:35:18.072	COM8_115200	2000-0-0 0:31:9.550	0,491	0,720	1,837	-55,664	-23,987	-52,185	-23,730	-37,408	-55,844	-48,158	62,258	41,300	35,97															
22:35:18.088	COM3_115200	2000-0-0 0:25:58.405	0,326	-0,664	1,770	67,871	-18,127	36,377	44,363	-33,970	178,544	-34,067	141,067	-7,450	38,75															
22:35:18.088	COM8_115200	2000-0-0 0:31:9.570	0,566	0,625	1,882	-57,495	-25,024	-48,035	-23,736	-38,046	-56,838	-48,158	62,258	41,300	35,95															
22:35:18.119	COM8_115200	2000-0-0 0:31:9.590	0,496	0,630	1,835	-48,706	-7,507	-37,476	-23,676	-38,441	-57,788	-48,158	62,258	41,300	36,02															
22:35:18.119	COM3_115200	2000-0-0 0:25:58.425	0,297	-0,673	1,840	57,800	-1,648	30,029	44,522	-34,360	179,165	-32,825	141,350	-9,300	38,72															
22:35:18.146	COM8_115200	2000-0-0 0:31:9.610	0,455	0,727	1,768	-48,706	-5,493	-40,100	-23,522	-38,584	-58,760	-48,158	62,258	41,300	35,97															
22:35:18.147	COM3_115200	2000-0-0 0:25:58.445	0,348	-0,786	1,845	47,791	2,197	29,175	44,363	-34,557	179,978	-31,633	141,533	-10,967	38,72															
22:35:18.150	COM3_115200	2000-0-0 0:25:58.465	0,285	-0,833	1,858	36,926	6,409	25,879	44,017	-34,673	-179,258	-30,633	141,650	-12,533	38,77															
22:35:18.155	COM8_115200	2000-0-0 0:31:9.630	0,451	0,800	1,859	-44,861	-18,005	-40,283	-23,340	-38,864	-59,694	-48,158	62,258	41,300	35,92															
22:35:18.172	COM3_115200	2000-0-0 0:25:58.485	0,270	-0,874	1,793	31,555	15,808	23,010	43,456	-34,596	-178,396	-29,692	141,742	-13,933	38,78															
22:35:18.175	COM8_115200	2000-0-0 0:31:9.650	0,644	0,644	1,902	-39,673	-15,442	-37,109	-23,137	-39,243	-60,573	-48,158	62,258	41,300	35,99															
22:35:18.178	COM3_115200	2000-0-0 0:25:58.505	0,398	-0,865	1,894	27,771	29,053	22,339	42,748	-34,310	-177,380	-28,875	141,808	-15,067	38,76															
22:35:18.194	COM8_115200	2000-0-0 0:31:9.670	0,467	0,747	1,805	-22,095	24,841	-38,147	-22,533	-39,139	-61,622	-48,158	62,258	41,300	35,97															
22:35:18.194	COM3_115200	2000-0-0 0:25:58.525	0,374	-0,968	1,880	22,156	25,635	22,888	41,907	-33,981	-176,325	-28,092	141,875	-16,242	38,76															
22:35:18.209	COM8_115200	2000-0-0 0:31:9.690	0,452	0,839	1,793	-13,794	45,776	-47,668	-21,330	-38,414	-63,254	-48,158	62,258	41,300	36,03															
22:35:18.225	COM3_115200	2000-0-0 0:25:58.545	0,327	-0,950	1,860	18,188	15,381	23,010	41,067	-33,777	-175,430	-27,292	142,008	-17,400	38,73															
22:35:18.225	COM8_115200	2000-0-0 0:31:9.710	0,404	0,871	1,857	-12,817	25,818	-45,593	-20,165	-37,875	-64,748	-48,158	62,258	41,300	36,04															
22:35:18.256	COM8_115200	2000-0-0 0:31:9.730	0,648	0,821	1,892	-9,583	20,386	-38,391	-19,105	-37,485	-66,028	-48,158	62,258	41,300	36,00															
22:35:18.272	COM3_115200	2000-0-0 0:25:58.565	0,327	-0,970	1,897	17,395	9,216	29,053	40,182	-33,701	-174,529	-26,550	142,033	-18,408	38,77															
22:35:18.272	COM8_115200	2000-0-0 0:31:9.750	0,431	0,861	1,895	-5,005	25,818	-34,058	-18,100	-37,002	-67,099	-48,158	62,258	41,300	36,05															
22:35:18.272	COM3_115200	2000-0-0 0:25:58.585	0,331	-0,952	1,854	18,372	3,174	30,396	39,386	-33,794	-173,738	-25,758	142,092	-18,983	38,73															
22:35:18.287	COM3_115200	2000-0-0 0:25:58.605	0,246	-0,929	1,832	16,541	4,211	32,288	38,535	-33,876	-172,886	-25,008	142,083	-19,558	38,77															
22:35:18.287	COM8_115200	2000-0-0 0:31:9.770	0,446	0,894	1,876	-2,258	24,780	-36,865	-16,985	-36,436	-68,253	-48,158	62,258	41,300	36,05															
22:35:18.303	COM3_115200	2000-0-0 0:25:58.625	0,287	-0,915	1,850	17,090	-0,183	33,386	37,689	-34,008	-172,057	-24,142	142,083	-20,267	38,71															
22:35:18.303	COM8_115200	2000-0-0 0:31:9.790	0,463	0,906	1,910	-5,737	6,470	-35,767	-16,002	-36,161	-69,236	-48,158	62,258	41,300	35,97															
22:35:18.319	COM8_115200	2000-0-0 0:31:9.810	0,461	0,876	1,915	-5,493	6,653	-34,973	-15,084	-35,958	-70,164	-48,158	62,258	41,300	36,01															
22:35:18.334	COM3_115200	2000-0-0 0:25:58.645	0,211	-0,899	1,831	18,860	0,244	31,799	36,920	-34,167	-171,282	-23,150	142,125	-20,825	38,78															
22:35:18.334	COM3_115200	2000-0-0 0:25:58.665	0,291	-0,898	1,849	18,799	6,042	28,503	36,118	-34,178	-170,436	-22,300	142,150	-21,367	38,68															
22:35:18.350	COM8_115200	2000-0-0 0:31:9.830	0,434	0,847	1,915	-5,371	7,690	-35,889	-14,178	-35,717	-71,109	-48,158	62,258	41,300	36,00															
22:35:18.365	COM3_115200	2000-0-0 0:25:58.685	0,273	-0,883	1,853	15,869	6,226	25,757	35,332	-34,118	-169,656	-21,467	142,150	-22,025	38,73															
22:35:18.365	COM8_115200	2000-0-0 0:31:9.850	0,430	0,866	1,896	-4,517	7,080	-31,677	-13,293	-35,453	-71,993	-48,158	62,258	41,300	35,95															
22:35:18.381	COM3_115200	2000-0-0 0:25:58.705	0,197	-0,891	1,877	13,306	5,310	24,780	34,514	-34,030	-168,915	-20,675	142,142	-22,533	38,73															
22:35:18.381	COM8_115200	2000-0-0 0:31:9.870	0,332	0,871	1,890	-2,075	0,183	-29,907	-12,458	-35,266	-72,751	-48,158	62,258	41,300	36,01															
22:35:18.397	COM3_115200	2000-0-0 0:25:58.725	0,225	-0,919	1,882	13,733	5,371	22,705	33,706	-33,942	-168,206	-19,867	142,008	-23,017	38,73															
22:35:18.412	COM8_115200	2000-0-0 0:31:9.890	0,424	0,900	1,866	-3,357	-3,357	-28,687	-11,640	-35,140	-73,482	-48,158	62,258	41,300	36,00															
22:35:18.428	COM8_115200	2000-0-0 0:31:9.910	0,394	0,928	1,868	-6,836	-8,362	-26,001	-10,948	-35,123	-74,108	-48,158	62,258	41,300	35,96															
22:35:18.428	COM3_115200	2000-0-0 0:25:58.745	0,282	-0,944	1,876	13,733	9,766	19,531	32,926	-33,755	-167,520	-19,100	141,967	-23,342	38,69															
22:35:18.444	COM3_115200	2000-0-0 0:25:58.765	0,255	-0,958	1,894	12,878	9,888	18,616	32,157	-33,486	-166,855	-18,383	141,958	-23,850	38,71															
22:35:18.444	COM8_115200	2000-0-0 0:31:9.930	0,371	0,902	1,875	-5,981	0,549	-26,794	-10,256	-34,975	-74,767	-48,158	62,258	41,300	35,99															
22:35:18.475	COM3_115200	2000-0-0 0:25:58.785	0,188	-0,959	1,924	12,878	4,028	20,813	31,410	-33,289	-166,229	-17,742	141,908	-24,325	38,71															
22:35:18.490	COM8_115200	2000-0-0 0:31:9.950	0,325	0,920	1,884	-6,470	3,418	-25,269	-9,580	-34,739	-75,410	-48,158	62,258	41,300	35,98															
22:35:18.490	COM8_115200	2000-0-0 0:31:9.970	0,377	0,951	1,890	-8,484	0,061	-24,963	-8,943	-34,492	-76,042	-48,158	62,258	41,300	35,96															
22:35:18.490	COM3_115200	2000-0-0 0:25:58.805	0,268	-0,961	1,896	14,587	0,610	20,935	30,712	-33,206	-165,641	-17,158	141,900	-24,683	38,71															
22:35:18.506	COM3_115200	2000-0-0 0:25:58.825	0,226	-0,952	1,903	13,306	6,042	19,043	30,020	-33,036	-165,053	-16,517	141,842	-25,017	38,76															
22:35:18.522	COM8_115200	2000-0-0 0:31:9.990	0,348	0,916	1,912	-9,521	-7,080	-25,513	-8,372	-34,371	-76,641	-48,158	62,258	41,300	35,96															
22:35:18.522	COM3_115200	2000-0-0 0:25:58.845	0,203	-0,961	1,913	12,268	3,784	19,104	29,312	-32,860	-164,476	-15,867	141,733	-25,383	38,77															
22:35:18.522	COM8_115200	2000-0-0 0:31:10.010	0,337	0,912	1,920	-7,507	-3,601	-23,560	-7,795	-34,244	-77,228	-48,158	62,258	41,300	36,00															
22:35:18.537	COM3_115200	2000-0-0 0:25:58.865	0,154	-0,950	1,911	10,254	5,432	23,010	28,548	-32,679	-163,839	-15,292	141,650	-25,775	38,75															
22:35:18.553	COM8_115200	2000-0-0 0:31:10.030	0,341	0,939	1,929	-7,202	-0,732	-22,034	-7,218	-34,052	-77,767	-48,158	62,258	41,300	36,06															
22:35:18.569	COM3_115200	2000-0-0 0:25:58.885	0,227	-0,980	1,912	10,986	8,057	25,269	27,751	-32,509	-163,141	-14,708	141,617	-26,100	38,77															
22:35:18.569	COM8_115200	2000-0-0 0:31:10.050	0,309	0,954	1,928	-8,240	-0,610	-18,799	-6,696	-33,816	-78,250	-48,158	62,258	41,300	35,99															
22:35:18.584	COM3_115200	2000-0-0 0:25:58.905	0,347	-0,958	1,947	11,536	23,926	23,254	26,917	-32,102	-162,323	-14,050	141,533	-26,367	38,73															
22:35:18.584	COM8_115200	2000-0-0 0:31:10.070	0,346	0,938	1,933	-7,507	-2,808	-16,663	-6,213	-33,585	-78,662	-48,158	62,258	41,300	36,04															
22:35:18.600	COM3_115200	2000-0-0 0:25:58.925	0,245	-0,966	1,971	24,048	55,237	9,338	26,219	-31,207	-161,444	-13,425	141,417	-26,742	38,69															
22:35:18.600	COM8_115200	2000-0-0 0:31:10.090	0,388	0,943	1,953	-10,132	-10,681	-12,817	-5,817	-33,481	-78,981	-48,158	62,258	41,300	35,99															
22:35:18.615	COM3_115200	2000-0-0 0:25:58.945	0,214	-0,948	1,947	17,456	73,181	3,418	25,571	-29,729	-160,576	-12,775	141,383	-27,133	38,73															
22:35:18.631	COM8_115200	2000-0-0 0:31:10.110	0,282	0,924	1,956	-10,620	-10,559	-9,521	-5,510	-33,431	-79,217	-48,158	62,258	41,300	36,00															
22:35:18.631	COM3_115200	2000-0-0 0:25:58.965	0,200	-0,952	1,983	9,949	72,327	1,099	24,829	-28,130	-159,785	-12,142	141,292	-27,458	38,78															
22:35:18.646	COM8_115200	2000-0-0 0:31:10.130	0,298	0,942	1,930	-6,958	-10,925	-5,798	-5,208	-33,371	-79,376	-48,158	62,258	41,300	35,93															
22:35:18.662	COM3_115200	2000-0-0 0:25:58.985	0,137	-0,986	2,010	2,319	61,157	2,014	24,011	-26,708	-159,131	-11,633	141,175	-27,808	38,79															
22:35:18.678	COM8_115200	2000-0-0 0:31:10.150	0,351	0,982	1,944	-8,362	-18,433	-1,526	-4,949	-33,398	-79,420	-48,158	62,258	41,300	36,00															
22:35:18.678	COM3_115200	2000-0-0 0:25:59.005	0,161	-0,975	1,980	2,380	30,640	0,305	23,264	-25,664	-158,730	-11,208	141,092	-28,100	38,80															
22:35:18.693	COM8_115200	2000-0-0 0:31:10.170	0,262	0,972	1,964	-3,052	-20,691	-0,732	-4,680	-33,492	-79,398	-48,158	62,258	41,300	35,96															
22:35:18.709	COM3_115200	2000-0-0 0:25:59.025	0,137	-0,976	2,003	0,671	17,883	6,775	22,593	-25,005	-158,478	-10,842	141,008	-28,325	38,62															
22:35:18.709	COM8_115200	2000-0-0 0:31:10.190	0,307	1,010	1,949	-1,343	-23,865	-0,977	-4,345	-33,629	-79,376	-48,158	62,258	41,300	35,99															
22:35:18.725	COM3_115200	2000-0-0 0:25:59.045	0,188	-1,019	1,970	0,732	5,615	10,925	21,918	-24,664	-158,236	-10,575	140,992	-28,408	38,72															
22:35:18.734	COM8_115200	2000-0-0 0:31:10.210	0,321	1,015	1,962	-1,404	-21,790	-2,869	-3,983	-33,777	-79,398	-48,158	62,258	41,300	36,01															
22:35:18.744	COM3_115200	2000-0-0 0:25:59.065	0,203	-1,002	1,901	0,671	3,723	11,047	21,253	-24,390	-157,983	-10,292	140,883	-28,467	38,72															
22:35:18.744	COM8_115200	2000-0-0 0:31:10.230	0,274	0,985	1,960	0,000	-18,860	-3,723	-3,587	-33,849	-79,464	-48,158	62,258	41,300	36,02															
22:35:18.760	COM3_115200	2000-0-0 0:25:59.085	0,060	-0,909	2,012	-1,953	7,507	17,822	20,544	-24,126	-157,698	-10,050	140,767	-28,425	38,66															
22:35:18.776	COM8_115200	2000-0-0 0:31:10.250	0,249	0,929	1,994	1,221	-19,836	-4,822	-3,159	-33,942	-79,568	-48,158	62,258	41,300	36,00															
22:35:18.791	COM3_115200	2000-0-0 0:25:59.105	0,114	-0,939	2,125	-5,493	25,024	9,216	19,770	-23,560	-157,368	-9,658	140,758	-28,375	38,73															
22:35:18.791	COM8_115200	2000-0-0 0:31:10.270	0,315	0,966	1,892	-1,343	-19,104	-2,197	-2,752	-34,014	-79,634	-48,158	62,258	41,300	36,00															
22:35:18.791	COM3_115200	2000-0-0 0:25:59.125	0,140	-0,996	2,017	-0,854	25,818	7,568	19,039	-22,890	-157,061	-9,250	140,742	-28,300	38,76															
22:35:18.807	COM8_115200	2000-0-0 0:31:10.290	0,338	0,954	1,875	-2,014	-17,517	-1,709	-2,411	-34,069	-79,673	-48,158	62,258	41,300	35,97															
22:35:18.822	COM3_115200	2000-0-0 0:25:59.145	0,205	-0,981	2,047	2,319	22,766	4,822	18,424	-22,198	-156,824	-8,875	140,675	-28,300	38,68															
22:35:18.854	COM8_115200	2000-0-0 0:31:10.310	0,333	0,911	1,935	0,732	-15,381	-3,296	-2,038	-34,052	-79,750	-48,158	62,258	41,300	36,00															
22:35:18.854	COM8_115200	2000-0-0 0:31:10.330	0,326	0,913	1,918	2,319	-12,878	-1,160	-1,620	-34,008	-79,805	-48,158	62,258	41,300	35,99															
22:35:18.854	COM3_115200	2000-0-0 0:25:59.165	0,152	-0,970	2,041	1,465	14,648	2,441	17,886	-21,610	-156,709	-8,567	140,658	-28,208	38,74															
22:35:18.885	COM8_115200	2000-0-0 0:31:10.350	0,294	0,896	1,909	3,845	-6,348	-0,244	-1,203	-33,882	-79,832	-48,158	62,258	41,300	35,98															
22:35:18.885	COM3_115200	2000-0-0 0:25:59.185	0,146	-0,963	2,027	-0,488	6,409	-0,549	17,358	-21,193	-156,703	-8,342	140,625	-28,217	38,72															
22:35:18.901	COM3_115200	2000-0-0 0:25:59.205	0,125	-0,970	2,027	-1,587	2,136	-3,357	16,837	-20,869	-156,797	-8,208	140,600	-28,308	38,76															
22:35:18.916	COM3_115200	2000-0-0 0:25:59.225	0,197	-0,991	2,007	-2,502	0,488	-6,042	16,331	-20,594	-156,962	-8,133	140,575	-28,308	38,69															
22:35:18.916	COM8_115200	2000-0-0 0:31:10.370	0,295	0,930	1,886	2,441	-3,845	0,061	-0,797	-33,673	-79,849	-48,158	62,258	41,300	35,97															
22:35:18.916	COM8_115200	2000-0-0 0:31:10.390	0,337	0,958	1,884	2,563	1,099	-0,610	-0,406	-33,404	-79,876	-48,158	62,258	41,300	35,98															
22:35:18.916	COM3_115200	2000-0-0 0:25:59.245	0,156	-0,949	2,022	-4,700	-1,892	-5,310	15,820	-20,336	-157,165	-8,125	140,558	-28,292	38,78															
22:35:18.932	COM8_115200	2000-0-0 0:31:10.410	0,308	0,971	1,913	3,723	2,625	0,244	0,000	-33,058	-79,893	-48,158	62,258	41,300	35,99															
22:35:18.947	COM3_115200	2000-0-0 0:25:59.265	0,119	-0,951	2,015	-6,836	-12,024	-1,221	15,249	-20,248	-157,346	-8,117	140,533	-28,125	38,72															
22:35:18.963	COM8_115200	2000-0-0 0:31:10.430	0,258	0,976	1,885	5,432	2,930	2,502	0,401	-32,684	-79,860	-48,158	62,258	41,300	35,98															
22:35:18.963	COM3_115200	2000-0-0 0:25:59.285	0,124	-0,992	1,965	-5,737	-10,193	-1,282	14,678	-20,242	-157,500	-8,175	140,550	-28,183	38,73															
22:35:18.979	COM8_115200	2000-0-0 0:31:10.450	0,342	0,985	1,880	5,371	2,747	1,648	0,807	-32,355	-79,821	-48,158	62,258	41,300	36,04															
22:35:18.979	COM3_115200	2000-0-0 0:25:59.305	0,200	-0,983	1,970	-5,920	-5,432	-3,662	14,128	-20,132	-157,665	-8,225	140,650	-27,917	38,76															
22:35:18.979	COM8_115200	2000-0-0 0:31:10.470	0,330	0,980	1,914	4,761	2,319	-0,854	1,236	-32,031	-79,827	-48,158	62,258	41,300	36,04															
22:35:19.010	COM3_115200	2000-0-0 0:25:59.325	0,158	-0,953	1,997	-7,996	-7,507	-2,930	13,557	-19,995	-157,846	-8,292	140,658	-27,642	38,77															
22:35:19.025	COM3_115200	2000-0-0 0:25:59.345	0,131	-0,980	1,969	-9,094	-15,686	-1,587	12,958	-20,017	-158,016	-8,350	140,683	-27,483	38,73															
22:35:19.025	COM8_115200	2000-0-0 0:31:10.490	0,304	0,957	1,891	6,409	6,775	-1,953	1,686	-31,624	-79,871	-48,158	62,258	41,300	35,99															
22:35:19.025	COM8_115200	2000-0-0 0:31:10.510	0,300	0,967	1,879	7,019	1,770	0,366	2,142	-31,267	-79,876	-48,158	62,258	41,300	35,99															
22:35:19.041	COM3_115200	2000-0-0 0:25:59.365	0,166	-0,999	1,936	-8,423	-17,212	-3,113	12,365	-20,105	-158,209	-8,433	140,758	-27,475	38,73															
22:35:19.041	COM8_115200	2000-0-0 0:31:10.530	0,301	0,965	1,869	6,592	-0,061	1,404	2,565	-30,992	-79,843	-48,158	62,258	41,300	36,01															
22:35:19.057	COM3_115200	2000-0-0 0:25:59.385	0,202	-0,991	1,945	-7,813	-20,813	-6,226	11,832	-20,242	-158,467	-8,483	140,692	-27,200	38,73															
22:35:19.072	COM8_115200	2000-0-0 0:31:10.550	0,339	0,944	1,881	5,493	2,930	-0,488	2,983	-30,696	-79,838	-48,158	62,258	41,300	35,98															
22:35:19.072	COM3_115200	2000-0-0 0:25:59.405	0,157	-0,950	1,955	-8,179	-25,330	-6,897	11,310	-20,446	-158,774	-8,617	140,725	-27,050	38,74															
22:35:19.088	COM8_115200	2000-0-0 0:31:10.570	0,320	0,957	1,867	3,662	5,554	-0,793	3,367	-30,322	-79,838	-48,158	62,258	41,300	35,97															
22:35:19.104	COM8_115200	2000-0-0 0:31:10.590	0,271	0,930	1,867	4,822	7,690	-1,343	3,746	-29,910	-79,838	-48,158	62,258	41,300	36,05															
22:35:19.104	COM3_115200	2000-0-0 0:25:59.425	0,129	-0,952	1,949	-7,751	-29,419	-3,967	10,783	-20,770	-159,049	-8,833	140,850	-26,817	38,75															
22:35:19.119	COM8_115200	2000-0-0 0:31:10.610	0,323	0,928	1,854	4,944	10,986	-1,587	4,136	-29,443	-79,843	-48,158	62,258	41,300	35,96															
22:35:19.119	COM3_115200	2000-0-0 0:25:59.445	0,155	-0,989	1,902	-3,784	-22,888	-4,639	10,305	-21,039	-159,285	-9,083	140,983	-26,717	38,70															
22:35:19.135	COM3_115200	2000-0-0 0:25:59.465	0,205	-0,989	1,908	0,732	-14,832	-8,972	9,937	-21,143	-159,554	-9,308	141,033	-26,575	38,73															
22:35:19.150	COM8_115200	2000-0-0 0:31:10.630	0,351	0,940	1,886	2,258	12,024	-2,075	4,488	-28,960	-79,854	-48,158	62,258	41,300	36,02															
22:35:19.167	COM3_115200	2000-0-0 0:25:59.485	0,180	-0,947	1,926	0,793	-10,437	-7,507	9,602	-21,105	-159,813	-9,558	141,075	-26,425	38,72															
22:35:19.176	COM8_115200	2000-0-0 0:31:10.650	0,333	0,958	1,885	1,770	7,324	-1,099	4,818	-28,510	-79,849	-48,158	62,258	41,300	35,98															
22:35:19.188	COM3_115200	2000-0-0 0:25:59.505	0,144	-0,975	1,914	1,709	-8,911	-6,042	9,261	-21,066	-160,027	-9,858	141,083	-26,342	38,73															
22:35:19.197	COM8_115200	2000-0-0 0:31:10.670	0,303	0,982	1,882	3,723	1,282	2,014	5,136	-28,191	-79,805	-48,158	62,258	41,300	35,98															
22:35:19.217	COM8_115200	2000-0-0 0:31:10.690	0,332	0,965	1,889	3,723	-3,052	4,700	5,427	-27,977	-79,695	-48,158	62,258	41,300	35,99															
22:35:19.217	COM3_115200	2000-0-0 0:25:59.525	0,153	-1,014	1,906	4,089	-3,723	-9,033	8,959	-20,923	-160,247	-10,033	141,075	-26,283	38,76															
22:35:19.248	COM8_115200	2000-0-0 0:31:10.710	0,333	0,949	1,880	2,441	-6,348	9,888	5,663	-27,867	-79,508	-48,158	62,258	41,300	36,00															
22:35:19.248	COM8_115200	2000-0-0 0:31:10.730	0,391	0,927	1,853	3,174	-8,179	20,203	5,834	-27,801	-79,151	-48,158	62,258	41,300	35,98															
22:35:19.248	COM3_115200	2000-0-0 0:25:59.545	0,277	-0,996	1,934	8,179	-3,418	-17,334	8,784	-20,720	-160,593	-10,317	141,125	-26,367	38,73															
22:35:19.264	COM3_115200	2000-0-0 0:25:59.565	0,250	-0,931	1,960	6,775	-5,249	-20,386	8,663	-20,528	-161,071	-10,567	141,158	-26,508	38,76															
22:35:19.264	COM3_115200	2000-0-0 0:25:59.585	0,239	-0,948	1,955	3,723	-8,179	-21,179	8,503	-20,396	-161,576	-10,933	141,233	-26,558	38,72															
22:35:19.264	COM8_115200	2000-0-0 0:31:10.750	0,402	0,879	1,823	1,160	-0,610	34,973	5,812	-27,724	-78,481	-48,158	62,258	41,300	36,04															
22:35:19.279	COM3_115200	2000-0-0 0:25:59.605	0,258	-0,973	1,951	1,770	-10,620	-26,794	8,322	-20,308	-162,153	-11,400	141,258	-26,775	38,70															
22:35:19.279	COM8_115200	2000-0-0 0:31:10.770	0,314	0,887	1,818	5,981	7,324	39,734	5,746	-27,466	-77,558	-48,158	62,258	41,300	35,94															
22:35:19.295	COM3_115200	2000-0-0 0:25:59.625	0,350	-0,870	1,970	-0,488	-20,325	-38,940	8,179	-20,330	-162,955	-11,933	141,292	-26,983	38,73															
22:35:19.310	COM8_115200	2000-0-0 0:31:10.790	0,408	0,897	1,801	3,906	19,592	35,889	5,702	-27,032	-76,663	-48,158	62,258	41,300	35,99															
22:35:19.326	COM3_115200	2000-0-0 0:25:59.645	0,360	-0,778	1,982	-2,319	-25,269	-48,096	8,102	-20,490	-164,031	-12,667	141,275	-26,975	38,72															
22:35:19.326	COM8_115200	2000-0-0 0:31:10.810	0,326	0,844	1,792	3,662	45,715	31,006	5,658	-26,197	-75,844	-48,158	62,258	41,300	35,99															
22:35:19.342	COM3_115200	2000-0-0 0:25:59.665	0,232	-0,871	1,965	-2,441	-23,132	-38,818	8,009	-20,660	-165,070	-13,600	141,333	-26,992	38,71															
22:35:19.342	COM8_115200	2000-0-0 0:31:10.830	0,206	0,811	1,744	8,850	57,800	35,706	5,663	-24,911	-74,943	-48,158	62,258	41,300	35,96															
22:35:19.357	COM3_115200	2000-0-0 0:25:59.685	0,149	-0,990	1,924	-2,136	-10,864	-21,301	7,789	-20,704	-165,729	-14,650	141,308	-26,992	38,76															
22:35:19.357	COM8_115200	2000-0-0 0:31:10.850	0,243	0,927	1,774	6,287	42,053	34,851	5,718	-23,868	-74,064	-48,158	62,258	41,300	36,02															
22:35:19.373	COM3_115200	2000-0-0 0:25:59.705	0,192	-1,014	1,878	-1,343	-3,967	-16,235	7,498	-20,599	-166,152	-15,608	141,342	-26,942	38,65															
22:35:19.389	COM8_115200	2000-0-0 0:31:10.870	0,394	0,921	1,837	3,052	37,109	32,959	5,718	-23,005	-73,202	-48,158	62,258	41,300	36,02															
22:35:19.404	COM3_115200	2000-0-0 0:25:59.725	0,370	-0,966	1,870	-3,052	-1,038	-16,174	7,180	-20,424	-166,520	-16,367	141,350	-27,083	38,70															
22:35:19.404	COM8_115200	2000-0-0 0:31:10.890	0,545	0,846	1,901	7,385	50,720	29,724	5,790	-21,973	-72,411	-48,158	62,258	41,300	35,97															
22:35:19.420	COM3_115200	2000-0-0 0:25:59.745	0,275	-0,924	1,854	-9,094	11,780	-13,306	6,757	-20,083	-166,844	-16,992	141,417	-27,083	38,74															
22:35:19.435	COM8_115200	2000-0-0 0:31:10.910	0,423	0,875	1,899	14,038	36,926	31,616	5,988	-21,000	-71,565	-48,158	62,258	41,300	36,04															
22:35:19.451	COM3_115200	2000-0-0 0:25:59.765	0,247	-0,890	1,852	-13,977	21,484	-15,137	6,196	-19,517	-167,124	-17,583	141,508	-27,075	38,77															
22:35:19.451	COM8_115200	2000-0-0 0:31:10.930	0,443	0,961	1,938	16,968	26,550	28,320	6,301	-20,308	-70,834	-48,158	62,258	41,300	35,99															
22:35:19.467	COM3_115200	2000-0-0 0:25:59.785	0,292	-0,887	1,842	-15,869	32,471	-23,926	5,636	-18,765	-167,536	-18,033	141,592	-26,950	38,65															
22:35:19.467	COM8_115200	2000-0-0 0:31:10.950	0,494	0,832	1,981	14,954	15,747	25,574	6,625	-19,891	-70,181	-48,158	62,258	41,300	35,97															
22:35:19.482	COM3_115200	2000-0-0 0:25:59.805	0,292	-0,853	1,853	-18,372	45,044	-28,381	5,070	-17,792	-168,052	-18,567	141,600	-26,817	38,71															
22:35:19.482	COM8_115200	2000-0-0 0:31:10.970	0,404	0,808	1,974	20,203	17,700	27,893	7,015	-19,479	-69,516	-48,158	62,258	41,300	35,97															
22:35:19.498	COM3_115200	2000-0-0 0:25:59.825	0,249	-0,795	1,827	-23,987	57,312	-26,367	4,411	-16,545	-168,591	-19,117	141,650	-26,417	38,69															
22:35:19.545	COM8_115200	2000-0-0 0:31:10.990	0,415	0,738	1,920	27,161	7,690	37,354	7,449	-19,210	-68,725	-48,158	62,258	41,300	35,94															
22:35:19.545	COM8_115200	2000-0-0 0:31:11.010	0,387	0,841	1,911	29,358	-6,470	36,133	7,965	-19,254	-67,912	-48,158	62,258	41,300	36,03															
22:35:19.545	COM8_115200	2000-0-0 0:31:11.030	0,459	0,835	1,950	32,593	-8,911	36,438	8,542	-19,402	-67,099	-48,158	62,258	41,300	36,02															
22:35:19.560	COM3_115200	2000-0-0 0:25:59.845	0,256	-0,825	1,814	-30,579	67,139	-23,315	3,615	-15,106	-169,063	-19,642	141,683	-26,108	38,75															
22:35:19.576	COM8_115200	2000-0-0 0:31:11.050	0,417	0,753	1,922	42,786	0,977	41,931	9,196	-19,484	-66,237	-48,158	62,258	41,300	35,98															
22:35:19.576	COM3_115200	2000-0-0 0:25:59.865	0,296	-0,842	1,869	-37,415	66,345	-21,912	2,675	-13,640	-169,519	-20,067	141,758	-25,792	38,73															
22:35:19.607	COM8_115200	2000-0-0 0:31:11.070	0,488	0,730	1,826	51,636	2,075	46,631	10,009	-19,495	-65,242	-48,158	62,258	41,300	36,02															
22:35:19.607	COM8_115200	2000-0-0 0:31:11.090	0,531	0,912	1,833	45,776	-7,080	43,396	10,833	-19,622	-64,259	-48,158	62,258	41,300	36,00															
22:35:19.607	COM3_115200	2000-0-0 0:25:59.885	0,317	-0,903	1,917	-43,091	63,538	-19,470	1,609	-12,244	-169,975	-20,458	141,742	-25,267	38,69															
22:35:19.623	COM3_115200	2000-0-0 0:25:59.905	0,207	-1,023	1,909	-44,006	59,631	-14,099	0,472	-10,926	-170,376	-20,875	141,850	-24,392	38,78															
22:35:19.623	COM3_115200	2000-0-0 0:25:59.925	0,363	-0,964	2,025	-39,612	18,555	-10,437	-0,604	-10,157	-170,711	-21,300	142,075	-23,683	38,78															
22:35:19.638	COM8_115200	2000-0-0 0:31:11.110	0,566	0,860	1,875	45,288	2,563	41,992	11,607	-19,726	-63,320	-48,158	62,258	41,300	35,98															
22:35:19.638	COM3_115200	2000-0-0 0:25:59.945	0,416	-0,895	2,065	-43,640	3,540	-11,353	-1,675	-9,998	-171,041	-21,633	142,225	-22,683	38,71															
22:35:19.638	COM3_115200	2000-0-0 0:25:59.965	0,396	-0,889	1,963	-53,772	23,438	-9,827	-2,906	-9,668	-171,381	-21,992	142,267	-21,558	38,72															
22:35:19.638	COM8_115200	2000-0-0 0:31:11.130	0,524	0,722	1,981	53,955	18,738	45,593	12,404	-19,583	-62,309	-48,158	62,258	41,300	35,99															
22:35:19.654	COM3_115200	2000-0-0 0:25:59.985	0,244	-1,041	1,784	-55,298	45,654	-4,578	-4,241	-8,871	-171,678	-22,325	142,308	-20,450	38,79															
22:35:19.670	COM8_115200	2000-0-0 0:31:11.150	0,594	0,751	1,877	66,467	18,982	44,922	13,436	-19,286	-61,194	-48,158	62,258	41,300	35,93															
22:35:19.685	COM3_115200	2000-0-0 0:26:0.005	0,339	-1,010	1,795	-51,880	42,358	-5,066	-5,537	-7,932	-171,958	-22,575	142,442	-19,217	38,77															
22:35:19.701	COM8_115200	2000-0-0 0:31:11.170	0,393	0,873	1,779	67,810	13,184	36,316	14,557	-19,149	-60,260	-48,158	62,258	41,300	35,99															
22:35:19.701	COM3_115200	2000-0-0 0:26:0.025	0,328	-0,806	1,950	-54,871	35,522	-11,414	-6,806	-7,218	-172,332	-22,850	142,483	-17,917	38,72															
22:35:19.701	COM8_115200	2000-0-0 0:31:11.190	0,752	0,948	1,717	60,486	1,587	33,325	15,732	-19,089	-59,507	-48,158	62,258	41,300	36,01															
22:35:19.717	COM3_115200	2000-0-0 0:26:0.045	0,377	-0,742	1,921	-62,256	48,401	-15,381	-8,157	-6,427	-172,859	-23,133	142,492	-16,592	38,67															
22:35:19.732	COM8_115200	2000-0-0 0:31:11.210	0,611	0,753	1,824	58,838	-9,949	37,048	16,743	-19,385	-58,738	-48,158	62,258	41,300	36,00															
22:35:19.743	COM3_115200	2000-0-0 0:26:0.065	0,338	-0,792	1,776	-68,481	69,946	-8,850	-9,646	-5,240	-173,414	-23,458	142,558	-15,233	38,71															
22:35:19.760	COM8_115200	2000-0-0 0:31:11.230	0,489	0,721	1,778	72,754	10,986	26,672	17,968	-19,435	-58,063	-48,158	62,258	41,300	36,05															
22:35:19.760	COM3_115200	2000-0-0 0:26:0.085	0,327	-1,078	1,692	-58,105	63,843	-8,911	-11,047	-3,895	-173,974	-23,833	142,600	-13,883	38,73															
22:35:19.760	COM8_115200	2000-0-0 0:31:11.250	0,676	0,766	1,740	70,984	13,123	30,029	19,248	-19,308	-57,365	-48,158	62,258	41,300	35,96															
22:35:19.776	COM3_115200	2000-0-0 0:26:0.105	0,511	-1,015	1,848	-43,091	20,264	-14,587	-12,178	-3,301	-174,452	-24,200	142,625	-12,533	38,78															
22:35:19.792	COM8_115200	2000-0-0 0:31:11.270	0,723	0,813	1,611	64,941	8,179	30,334	20,424	-19,276	-56,613	-48,158	62,258	41,300	36,01															
22:35:19.807	COM3_115200	2000-0-0 0:26:0.125	0,332	-0,789	2,013	-43,213	16,541	-21,851	-13,145	-3,175	-175,029	-24,633	142,625	-11,242	38,75															
22:35:19.807	COM8_115200	2000-0-0 0:31:11.290	0,672	0,724	1,632	62,500	8,789	31,067	21,517	-19,314	-55,898	-48,158	62,258	41,300	35,96															
22:35:19.823	COM3_115200	2000-0-0 0:26:0.145	0,390	-0,768	1,968	-52,185	17,822	-23,743	-14,244	-2,999	-175,726	-25,133	142,550	-9,900	38,74															
22:35:19.823	COM8_115200	2000-0-0 0:31:11.310	0,524	0,665	1,690	62,256	10,254	24,658	22,560	-19,341	-55,250	-48,158	62,258	41,300	36,06															
22:35:19.839	COM3_115200	2000-0-0 0:26:0.165	0,439	-0,918	1,746	-51,819	7,996	-19,592	-15,408	-2,939	-176,320	-25,767	142,442	-8,692	38,76															
22:35:19.854	COM8_115200	2000-0-0 0:31:11.330	0,528	0,677	1,621	61,707	18,372	28,870	23,610	-19,232	-54,536	-48,158	62,258	41,300	36,01															
22:35:19.854	COM3_115200	2000-0-0 0:26:0.185	0,466	-0,938	1,745	-45,898	-20,996	-21,973	-16,458	-3,285	-176,814	-26,358	142,342	-7,300	38,70															
22:35:19.870	COM8_115200	2000-0-0 0:31:11.350	0,687	0,720	1,637	55,908	14,587	36,072	24,500	-19,171	-53,701	-48,158	62,258	41,300	35,93															
22:35:19.886	COM3_115200	2000-0-0 0:26:0.205	0,356	-0,744	1,881	-50,537	-37,109	-24,475	-17,518	-4,158	-177,177	-26,917	142,233	-5,817	38,69															
22:35:19.886	COM8_115200	2000-0-0 0:31:11.370	0,711	0,614	1,637	56,641	18,188	38,879	25,302	-19,199	-52,773	-48,158	62,258	41,300	35,96															
22:35:19.901	COM3_115200	2000-0-0 0:26:0.225	0,435	-0,750	1,837	-58,228	-27,527	-24,658	-18,688	-4,982	-177,578	-27,458	142,092	-4,458	38,73															
22:35:19.917	COM8_115200	2000-0-0 0:31:11.390	0,508	0,682	1,601	52,551	15,503	33,813	26,087	-19,155	-51,866	-48,158	62,258	41,300	35,93															
22:35:19.917	COM3_115200	2000-0-0 0:26:0.245	0,414	-0,826	1,654	-61,646	-20,081	-18,677	-19,951	-5,603	-177,940	-28,125	141,842	-2,908	38,74															
22:35:19.917	COM8_115200	2000-0-0 0:31:11.410	0,666	0,616	1,710	51,392	8,789	40,344	26,818	-19,286	-51,031	-48,158	62,258	41,300	36,06															
22:35:19.964	COM8_115200	2000-0-0 0:31:11.430	0,748	0,609	1,671	51,941	8,606	44,739	27,466	-19,539	-50,070	-48,158	62,258	41,300	35,97															
22:35:19.964	COM8_115200	2000-0-0 0:31:11.450	0,625	0,607	1,654	57,861	17,029	39,734	28,202	-19,660	-49,087	-48,158	62,258	41,300	35,99															
22:35:19.964	COM3_115200	2000-0-0 0:26:0.265	0,344	-0,855	1,692	-63,110	-24,597	-20,447	-21,231	-6,202	-178,248	-28,717	141,533	-1,208	38,69															
22:35:19.979	COM3_115200	2000-0-0 0:26:0.285	0,407	-0,749	1,725	-63,599	-40,222	-27,954	-22,527	-7,086	-178,572	-29,142	141,225	0,483	38,73															
22:35:19.995	COM8_115200	2000-0-0 0:31:11.470	0,622	0,561	1,679	56,580	10,071	40,405	28,976	-19,781	-48,164	-48,158	62,258	41,300	36,00															
22:35:19.995	COM3_115200	2000-0-0 0:26:0.305	0,357	-0,742	1,705	-65,613	-32,288	-31,860	-23,796	-8,058	-178,967	-29,658	140,817	2,300	38,71															
22:35:19.995	COM3_115200	2000-0-0 0:26:0.325	0,358	-0,723	1,622	-68,298	-18,311	-31,799	-25,093	-8,762	-179,462	-30,233	140,333	4,250	38,68															
22:35:20.011	COM8_115200	2000-0-0 0:31:11.490	0,740	0,516	1,707	57,129	-0,305	47,607	29,707	-20,171	-47,258	-48,158	62,258	41,300	35,96															
22:35:20.011	COM3_115200	2000-0-0 0:26:0.345	0,572	-0,716	1,604	-69,397	-22,461	-35,828	-26,384	-9,437	179,984	-30,858	139,775	6,142	38,69															
22:35:20.026	COM8_115200	2000-0-0 0:31:11.510	0,691	0,506	1,658	61,707	3,052	49,683	30,471	-20,632	-46,274	-48,158	62,258	41,300	36,00															
22:35:20.042	COM3_115200	2000-0-0 0:26:0.365	0,471	-0,733	1,577	-71,167	-27,588	-39,001	-27,680	-10,278	179,440	-31,608	139,117	7,958	38,74															
22:35:20.057	COM3_115200	2000-0-0 0:26:0.385	0,356	-0,750	1,581	-75,562	-15,320	-37,354	-29,020	-11,019	178,852	-32,400	138,408	9,825	38,76															
22:35:20.057	COM8_115200	2000-0-0 0:31:11.530	0,716	0,500	1,650	63,721	1,160	52,002	31,256	-21,105	-45,280	-48,158	62,258	41,300	36,01															
22:35:20.057	COM8_115200	2000-0-0 0:31:11.550	0,703	0,447	1,571	64,575	3,601	53,894	32,020	-21,649	-44,220	-48,158	62,258	41,300	36,03															
22:35:20.089	COM3_115200	2000-0-0 0:26:0.405	0,375	-0,742	1,533	-77,515	-8,118	-35,889	-30,399	-11,580	178,204	-33,192	137,617	11,933	38,80															
22:35:20.089	COM8_115200	2000-0-0 0:31:11.570	0,767	0,458	1,564	65,430	3,845	55,725	32,756	-22,154	-43,132	-48,158	62,258	41,300	36,01															
22:35:20.089	COM3_115200	2000-0-0 0:26:0.425	0,568	-0,678	1,483	-77,026	-12,756	-38,269	-31,772	-12,156	177,572	-34,033	136,758	14,025	38,69															
22:35:20.104	COM8_115200	2000-0-0 0:31:11.590	0,742	0,441	1,609	63,232	-2,686	56,335	33,464	-22,747	-42,045	-48,158	62,258	41,300	35,93															
22:35:20.120	COM3_115200	2000-0-0 0:26:0.445	0,565	-0,708	1,440	-75,317	-22,949	-41,260	-33,080	-12,936	176,990	-34,892	135,742	16,025	38,73															
22:35:20.136	COM8_115200	2000-0-0 0:31:11.610	0,792	0,394	1,625	66,467	-8,179	54,932	34,211	-23,472	-41,061	-48,158	62,258	41,300	35,98															
22:35:20.151	COM8_115200	2000-0-0 0:31:11.630	0,823	0,376	1,524	71,533	-7,690	60,791	34,997	-24,280	-40,062	-48,158	62,258	41,300	35,97															
22:35:20.151	COM3_115200	2000-0-0 0:26:0.465	0,435	-0,672	1,380	-77,271	-13,000	-41,992	-34,398	-13,716	176,364	-35,783	134,758	18,142	38,80															
22:35:20.182	COM8_115200	2000-0-0 0:31:11.650	0,751	0,367	1,487	67,810	-8,545	55,054	35,760	-25,054	-39,073	-48,158	62,258	41,300	35,95															
22:35:20.182	COM3_115200	2000-0-0 0:26:0.485	0,372	-0,604	1,455	-77,515	2,197	-42,603	-35,662	-14,277	175,589	-36,725	133,642	20,325	38,72															
22:35:20.198	COM8_115200	2000-0-0 0:31:11.670	0,718	0,305	1,518	68,909	-6,592	56,396	36,513	-25,812	-38,167	-48,158	62,258	41,300	36,04															
22:35:20.200	COM3_115200	2000-0-0 0:26:0.505	0,561	-0,547	1,453	-77,332	2,258	-44,556	-36,881	-14,738	174,710	-37,725	132,350	22,558	38,76															
22:35:20.203	COM3_115200	2000-0-0 0:26:0.525	0,524	-0,545	1,375	-75,134	-15,076	-43,030	-38,068	-15,430	174,007	-38,742	130,875	24,725	38,73															
22:35:20.212	COM8_115200	2000-0-0 0:31:11.690	0,776	0,279	1,562	68,665	-10,376	59,631	37,200	-26,653	-37,167	-48,158	62,258	41,300	35,94															
22:35:20.226	COM3_115200	2000-0-0 0:26:0.545	0,401	-0,477	1,389	-78,552	-13,306	-46,143	-39,287	-16,238	173,370	-39,750	129,483	26,633	38,73															
22:35:20.231	COM8_115200	2000-0-0 0:31:11.710	0,852	0,204	1,460	73,914	-3,235	60,242	37,903	-27,460	-36,129	-48,158	62,258	41,300	36,00															
22:35:20.246	COM3_115200	2000-0-0 0:26:0.565	0,422	-0,417	1,464	-82,275	-11,658	-46,875	-40,523	-17,040	172,678	-40,825	128,092	28,442	38,75															
22:35:20.255	COM8_115200	2000-0-0 0:31:11.730	0,740	0,220	1,388	64,331	-8,911	63,354	38,485	-28,317	-35,013	-48,158	62,258	41,300	36,04															
22:35:20.261	COM3_115200	2000-0-0 0:26:0.585	0,579	-0,370	1,423	-85,022	-11,780	-45,715	-41,797	-17,820	172,002	-41,842	126,600	30,442	38,67															
22:35:20.261	COM8_115200	2000-0-0 0:31:11.750	0,734	0,191	1,460	59,082	-6,042	58,716	38,925	-29,174	-33,997	-48,158	62,258	41,300	36,04															
22:35:20.276	COM3_115200	2000-0-0 0:26:0.605	0,626	-0,410	1,332	-84,473	-21,423	-44,067	-43,072	-18,660	171,420	-42,725	124,833	32,542	38,72															
22:35:20.323	COM8_115200	2000-0-0 0:31:11.770	0,973	0,150	1,497	57,434	0,854	63,171	39,210	-29,960	-32,849	-48,158	62,258	41,300	35,98															
22:35:20.323	COM8_115200	2000-0-0 0:31:11.790	0,940	0,115	1,290	58,105	10,986	62,500	39,397	-30,586	-31,498	-48,158	62,258	41,300	36,06															
22:35:20.323	COM3_115200	2000-0-0 0:26:0.625	0,464	-0,393	1,280	-86,731	-36,438	-44,006	-44,418	-19,726	171,085	-43,608	123,000	34,600	38,69															
22:35:20.355	COM8_115200	2000-0-0 0:31:11.810	0,960	0,113	1,332	49,683	-2,502	60,425	39,507	-31,322	-30,311	-48,158	62,258	41,300	36,00															
22:35:20.355	COM8_115200	2000-0-0 0:31:11.830	0,858	0,118	1,360	41,931	-8,362	57,373	39,518	-32,168	-29,257	-48,158	62,258	41,300	35,97															
22:35:20.355	COM3_115200	2000-0-0 0:26:0.645	0,578	-0,362	1,366	-88,684	-52,002	-45,166	-45,879	-21,039	170,997	-44,283	121,100	36,708	38,69															
22:35:20.355	COM3_115200	2000-0-0 0:26:0.665	0,559	-0,351	1,250	-94,360	-28,809	-43,640	-47,346	-22,220	170,793	-44,717	119,100	38,667	38,72															
22:35:20.355	COM3_115200	2000-0-0 0:26:0.685	0,606	-0,325	1,085	-94,482	-33,691	-37,170	-48,851	-23,192	170,568	-45,100	117,000	40,733	38,74															
22:35:20.370	COM8_115200	2000-0-0 0:31:11.850	0,905	0,080	1,428	48,523	12,024	53,345	39,474	-32,805	-28,125	-48,158	62,258	41,300	35,92															
22:35:20.370	COM3_115200	2000-0-0 0:26:0.705	0,438	-0,267	1,089	-94,604	-32,776	-37,781	-50,372	-24,214	170,491	-45,442	114,733	42,925	38,73															
22:35:20.401	COM8_115200	2000-0-0 0:31:11.870	0,893	0,043	1,435	46,265	6,653	48,340	39,452	-33,272	-26,966	-48,158	62,258	41,300	36,00															
22:35:20.401	COM3_115200	2000-0-0 0:26:0.725	0,527	-0,263	1,135	-87,952	-25,635	-41,626	-51,757	-25,175	170,250	-45,700	112,492	45,017	38,73															
22:35:20.417	COM8_115200	2000-0-0 0:31:11.890	0,832	-0,047	1,423	44,800	1,587	47,729	39,435	-33,816	-25,922	-48,158	62,258	41,300	35,96															
22:35:20.417	COM3_115200	2000-0-0 0:26:0.745	0,569	-0,217	1,141	-82,275	-17,090	-41,565	-52,921	-26,104	169,942	-45,850	110,058	47,008	38,74															
22:35:20.433	COM8_115200	2000-0-0 0:31:11.910	0,697	-0,084	1,475	48,096	4,089	46,814	39,419	-34,360	-24,917	-48,158	62,258	41,300	36,01															
22:35:20.433	COM3_115200	2000-0-0 0:26:0.765	0,654	-0,153	1,051	-77,759	-4,150	-39,612	-53,882	-26,840	169,393	-46,017	107,533	48,833	38,73															
22:35:20.448	COM8_115200	2000-0-0 0:31:11.930	0,792	-0,106	1,488	48,157	-1,221	48,706	39,430	-34,909	-23,906	-48,158	62,258	41,300	35,95															
22:35:20.448	COM3_115200	2000-0-0 0:26:0.785	0,572	-0,168	1,050	-69,885	7,690	-42,236	-54,602	-27,477	168,662	-46,317	105,133	50,500	38,71															
22:35:20.480	COM8_115200	2000-0-0 0:31:11.950	0,760	-0,132	1,432	45,166	-7,629	49,377	39,397	-35,590	-22,950	-48,158	62,258	41,300	35,97															
22:35:20.480	COM3_115200	2000-0-0 0:26:0.805	0,378	-0,118	1,018	-63,538	14,771	-41,809	-55,047	-28,032	167,712	-46,858	102,742	52,008	38,72															
22:35:20.495	COM8_115200	2000-0-0 0:31:11.970	0,788	-0,185	1,493	46,387	-8,057	49,988	39,364	-36,293	-22,011	-48,158	62,258	41,300	36,00															
22:35:20.495	COM3_115200	2000-0-0 0:26:0.825	0,660	-0,109	1,150	-60,120	4,578	-41,626	-55,415	-28,608	166,838	-47,500	100,525	53,017	38,77															
22:35:20.511	COM8_115200	2000-0-0 0:31:11.990	0,708	-0,172	1,432	47,241	-4,761	50,232	39,271	-36,964	-21,017	-48,158	62,258	41,300	35,96															
22:35:20.526	COM3_115200	2000-0-0 0:26:0.845	0,625	-0,107	1,014	-53,650	-1,831	-35,522	-55,756	-29,257	166,163	-48,175	98,367	54,025	38,72															
22:35:20.526	COM8_115200	2000-0-0 0:31:12.010	0,805	-0,204	1,474	44,006	-13,367	52,185	39,150	-37,700	-20,056	-48,158	62,258	41,300	35,97															
22:35:20.542	COM3_115200	2000-0-0 0:26:0.865	0,609	-0,032	1,056	-47,729	7,385	-35,217	-55,964	-29,800	165,493	-48,842	96,242	54,908	38,73															
22:35:20.558	COM3_115200	2000-0-0 0:26:0.885	0,468	-0,054	1,117	-40,466	14,587	-35,461	-55,915	-30,284	164,674	-49,375	94,158	55,783	38,70															
22:35:20.558	COM8_115200	2000-0-0 0:31:12.030	0,774	-0,193	1,475	45,898	-7,080	50,537	38,974	-38,430	-19,067	-48,158	62,258	41,300	35,98															
22:35:20.573	COM3_115200	2000-0-0 0:26:0.905	0,562	-0,058	1,168	-39,063	23,743	-37,842	-55,679	-30,668	163,608	-50,075	92,400	56,350	38,66															
22:35:20.589	COM8_115200	2000-0-0 0:31:12.050	0,776	-0,201	1,449	49,194	-2,258	47,607	38,826	-38,985	-17,979	-48,158	62,258	41,300	36,00															
22:35:20.589	COM8_115200	2000-0-0 0:31:12.070	0,739	-0,246	1,429	44,373	-7,629	48,645	38,622	-39,584	-16,930	-48,158	62,258	41,300	36,00															
22:35:20.604	COM3_115200	2000-0-0 0:26:0.925	0,576	-0,027	1,092	-38,574	14,038	-32,898	-55,459	-31,047	162,647	-50,867	90,683	56,708	38,75															
22:35:20.604	COM8_115200	2000-0-0 0:31:12.090	0,837	-0,254	1,458	44,373	-4,639	48,096	38,364	-40,188	-15,892	-48,158	62,258	41,300	36,04															
22:35:20.620	COM3_115200	2000-0-0 0:26:0.945	0,650	0,014	1,154	-38,147	1,648	-33,081	-55,355	-31,520	161,955	-51,608	89,083	57,158	38,69															
22:35:20.620	COM8_115200	2000-0-0 0:31:12.110	0,833	-0,234	1,412	46,082	-3,601	44,189	38,106	-40,682	-14,815	-48,158	62,258	41,300	36,00															
22:35:20.651	COM8_115200	2000-0-0 0:31:12.130	0,880	-0,314	1,396	43,640	-6,958	42,908	37,892	-41,215	-13,854	-48,158	62,258	41,300	35,98															
22:35:20.651	COM3_115200	2000-0-0 0:26:0.965	0,594	-0,030	1,168	-38,086	-1,770	-35,400	-55,267	-32,108	161,356	-52,325	87,500	57,583	38,69															
22:35:20.651	COM3_115200	2000-0-0 0:26:0.985	0,536	0,022	1,176	-41,382	7,690	-32,654	-55,162	-32,640	160,642	-52,958	85,858	57,850	38,74															
22:35:20.698	COM8_115200	2000-0-0 0:31:12.150	0,815	-0,320	1,404	38,269	-4,456	39,734	37,573	-41,721	-12,887	-48,158	62,258	41,300	35,93															
22:35:20.698	COM8_115200	2000-0-0 0:31:12.170	0,849	-0,308	1,437	37,964	0,305	42,725	37,161	-42,100	-11,849	-48,158	62,258	41,300	35,99															
22:35:20.698	COM3_115200	2000-0-0 0:26:1.005	0,526	0,047	1,152	-44,250	16,418	-26,489	-55,036	-32,943	159,796	-53,433	84,233	58,083	38,70															
22:35:20.714	COM8_115200	2000-0-0 0:31:12.190	0,855	-0,309	1,517	34,363	-6,470	41,748	36,683	-42,567	-10,838	-48,158	62,258	41,300	36,04															
22:35:20.714	COM3_115200	2000-0-0 0:26:1.025	0,550	0,105	1,148	-44,128	13,123	-27,161	-54,937	-33,195	159,005	-54,008	82,600	58,467	38,75															
22:35:20.729	COM3_115200	2000-0-0 0:26:1.045	0,536	0,125	1,142	-43,030	5,432	-30,396	-54,833	-33,563	158,258	-54,525	80,983	58,575	38,76															
22:35:20.729	COM8_115200	2000-0-0 0:31:12.210	0,844	-0,341	1,503	37,231	0,183	37,659	36,244	-42,968	-9,849	-48,158	62,258	41,300	35,98															
