Time	COM	Chip Time()	Acceleration X(g)	Acceleration Y(g)	Acceleration Z(g)	Angular velocity X(/s)	Angular velocity Y(/s)	Angular velocity Z(/s)	Angle X()	Angle Y()	Angle Z()	Magnetic field X(?t)	Magnetic field Y(?t)	Magnetic field Z(?t)	Temperature(?)	Pressure(Pa)	Height(m)	Longitude()	Latitude()	GPS ground speed(km)	GPS course()	GPS height(m)	Number of satellites()	Position location()	Horizontal position()	Vertical position()	Quaternions 0()	Quaternions 1()	Quaternions 2()	Quaternions 3()
03:18:32.662	COM3_115200	2000-0-0 1:32:40.125	-0,302	0,923	1,725	-0,732	0,000	-0,427	27,669	8,410	46,829				39,82															
03:18:32.665	COM8_115200	2000-0-0 1:30:20.360	0,192	0,975	1,830	-0,854	-0,549	-0,793	27,636	-5,729	-150,870				37,14															
03:18:32.665	COM3_115200	2000-0-0 1:32:40.145	-0,301	0,918	1,731	-0,671	-0,427	-0,061	27,658	8,410	46,824				39,92															
03:18:32.683	COM8_115200	2000-0-0 1:30:20.380	0,188	0,973	1,833	-0,977	-0,854	-0,793	27,625	-5,724	-150,892				37,27															
03:18:32.699	COM3_115200	2000-0-0 1:32:40.165	-0,304	0,916	1,733	-0,732	-0,916	-0,244	27,647	8,405	46,818				39,82															
03:18:32.699	COM8_115200	2000-0-0 1:30:20.400	0,185	0,974	1,839	-1,038	-1,526	-0,854	27,614	-5,729	-150,919				37,20															
03:18:32.716	COM3_115200	2000-0-0 1:32:40.185	-0,311	0,922	1,730	-0,732	-1,709	-0,427	27,631	8,388	46,796				39,85															
03:18:32.716	COM8_115200	2000-0-0 1:30:20.420	0,187	0,974	1,837	-0,977	-1,770	-0,977	27,603	-5,740	-150,952				37,20															
03:18:32.734	COM3_115200	2000-0-0 1:32:40.205	-0,310	0,918	1,737	-0,793	-1,831	-0,549	27,614	8,366	46,774				39,85															
03:18:32.747	COM8_115200	2000-0-0 1:30:20.440	0,180	0,975	1,832	-0,854	-1,404	-0,610	27,592	-5,757	-150,980				37,11															
03:18:32.749	COM3_115200	2000-0-0 1:32:40.225	-0,309	0,921	1,738	-0,488	-1,770	-0,732	27,609	8,350	46,741				39,79															
03:18:32.767	COM8_115200	2000-0-0 1:30:20.460	0,178	0,975	1,832	-0,854	-1,038	-0,244	27,581	-5,762	-150,996				37,27															
03:18:32.782	COM3_115200	2000-0-0 1:32:40.245	-0,320	0,936	1,737	-0,366	-1,160	-0,549	27,603	8,333	46,719				39,70															
03:18:32.784	COM8_115200	2000-0-0 1:30:20.480	0,183	0,984	1,835	-0,854	-1,038	-0,427	27,570	-5,768	-151,007				37,27															
03:18:32.789	COM3_115200	2000-0-0 1:32:40.265	-0,292	0,938	1,735	-0,671	-0,488	0,122	27,592	8,328	46,714				39,92															
03:18:32.801	COM8_115200	2000-0-0 1:30:20.500	0,193	0,979	1,831	-0,916	-1,221	-1,099	27,559	-5,773	-151,040				37,17															
03:18:32.815	COM3_115200	2000-0-0 1:32:40.285	-0,298	0,919	1,739	-0,549	0,122	0,305	27,587	8,333	46,719				39,63															
03:18:32.824	COM8_115200	2000-0-0 1:30:20.520	0,188	0,977	1,839	-0,732	-0,671	-1,160	27,548	-5,773	-151,068				37,23															
03:18:32.836	COM3_115200	2000-0-0 1:32:40.305	-0,308	0,917	1,742	-0,122	-0,427	-0,061	27,592	8,339	46,719				39,85															
03:18:32.846	COM8_115200	2000-0-0 1:30:20.540	0,181	0,974	1,842	-0,549	-0,732	-1,221	27,548	-5,762	-151,095				37,27															
03:18:32.861	COM3_115200	2000-0-0 1:32:40.325	-0,316	0,927	1,742	-0,061	-0,854	-0,183	27,592	8,339	46,714				39,82															
03:18:32.869	COM8_115200	2000-0-0 1:30:20.560	0,184	0,977	1,839	-0,305	-0,549	-1,099	27,548	-5,757	-151,122				37,36															
03:18:32.874	COM3_115200	2000-0-0 1:32:40.345	-0,309	0,922	1,746	-0,244	-0,488	0,061	27,592	8,344	46,708				39,79															
03:18:32.886	COM8_115200	2000-0-0 1:30:20.580	0,185	0,976	1,838	-0,244	-0,183	-0,854	27,548	-5,746	-151,139				37,17															
03:18:32.900	COM3_115200	2000-0-0 1:32:40.365	-0,313	0,918	1,744	-0,061	-0,610	-0,305	27,592	8,339	46,703				39,88															
03:18:32.916	COM8_115200	2000-0-0 1:30:20.600	0,183	0,979	1,841	0,000	0,061	-0,427	27,554	-5,729	-151,150				37,17															
03:18:32.949	COM8_115200	2000-0-0 1:30:20.620	0,174	0,978	1,843	0,000	-0,610	-0,732	27,559	-5,724	-151,161				37,30															
03:18:32.951	COM8_115200	2000-0-0 1:30:20.640	0,183	0,982	1,838	0,000	-0,488	-0,549	27,570	-5,713	-151,177				37,27															
03:18:32.955	COM3_115200	2000-0-0 1:32:40.385	-0,310	0,925	1,739	0,305	-0,671	-0,916	27,598	8,339	46,686				39,82															
03:18:32.957	COM3_115200	2000-0-0 1:32:40.405	-0,309	0,930	1,743	0,000	-0,854	-0,671	27,603	8,339	46,664				39,88															
03:18:32.971	COM8_115200	2000-0-0 1:30:20.660	0,181	0,977	1,841	0,183	0,000	-0,366	27,576	-5,707	-151,188				37,20															
03:18:32.972	COM3_115200	2000-0-0 1:32:40.425	-0,307	0,925	1,744	-0,183	0,000	0,244	27,609	8,339	46,659				39,88															
03:18:32.984	COM3_115200	2000-0-0 1:32:40.445	-0,313	0,921	1,741	0,061	-0,122	-0,305	27,609	8,339	46,659				39,76															
03:18:32.989	COM8_115200	2000-0-0 1:30:20.680	0,176	0,976	1,846	0,610	-0,061	-0,549	27,592	-5,696	-151,194				37,23															
03:18:32.999	COM3_115200	2000-0-0 1:32:40.465	-0,311	0,922	1,744	0,427	-0,183	-1,099	27,620	8,355	46,642				39,88															
03:18:33.007	COM8_115200	2000-0-0 1:30:20.700	0,177	0,975	1,845	0,549	-0,488	-0,610	27,609	-5,685	-151,210				37,14															
03:18:33.016	COM3_115200	2000-0-0 1:32:40.485	-0,313	0,922	1,749	0,549	-0,305	-0,366	27,631	8,361	46,626				39,95															
03:18:33.026	COM8_115200	2000-0-0 1:30:20.720	0,182	0,976	1,841	0,610	-0,427	-0,061	27,625	-5,680	-151,221				37,30															
03:18:33.041	COM3_115200	2000-0-0 1:32:40.505	-0,308	0,923	1,748	0,732	0,061	0,061	27,642	8,366	46,626				39,98															
03:18:33.049	COM8_115200	2000-0-0 1:30:20.740	0,183	0,976	1,845	0,793	-0,305	0,305	27,642	-5,680	-151,216				37,33															
03:18:33.054	COM3_115200	2000-0-0 1:32:40.525	-0,317	0,920	1,748	0,977	0,549	-0,671	27,664	8,388	46,626				39,88															
03:18:33.065	COM8_115200	2000-0-0 1:30:20.760	0,174	0,976	1,852	0,977	-0,549	0,427	27,664	-5,685	-151,216				37,23															
03:18:33.075	COM3_115200	2000-0-0 1:32:40.545	-0,309	0,919	1,742	1,404	0,488	-1,282	27,691	8,416	46,609				39,76															
03:18:33.086	COM8_115200	2000-0-0 1:30:20.780	0,170	0,978	1,854	2,014	-1,465	0,549	27,691	-5,696	-151,216				37,39															
03:18:33.101	COM3_115200	2000-0-0 1:32:40.565	-0,307	0,929	1,745	2,075	-0,854	-0,244	27,729	8,421	46,599				39,92															
03:18:33.109	COM8_115200	2000-0-0 1:30:20.800	0,172	0,986	1,844	2,197	-0,610	0,916	27,735	-5,702	-151,205				37,11															
03:18:33.117	COM3_115200	2000-0-0 1:32:40.585	-0,312	0,930	1,749	2,075	-0,610	0,977	27,773	8,410	46,604				39,85															
03:18:33.147	COM8_115200	2000-0-0 1:30:20.820	0,176	0,986	1,844	2,441	-0,854	0,366	27,779	-5,713	-151,199				37,20															
03:18:33.148	COM8_115200	2000-0-0 1:30:20.840	0,178	0,974	1,850	3,113	-1,587	0,000	27,839	-5,724	-151,210				37,27															
03:18:33.149	COM3_115200	2000-0-0 1:32:40.605	-0,314	0,926	1,744	2,319	-0,488	0,671	27,817	8,405	46,615				39,88															
03:18:33.155	COM3_115200	2000-0-0 1:32:40.625	-0,319	0,916	1,742	3,113	0,000	-0,061	27,878	8,405	46,615				39,73															
03:18:33.167	COM8_115200	2000-0-0 1:30:20.860	0,184	0,981	1,840	2,930	-1,282	0,610	27,900	-5,735	-151,216				37,17															
03:18:33.177	COM3_115200	2000-0-0 1:32:40.645	-0,309	0,921	1,741	3,906	-0,549	0,305	27,949	8,410	46,615				39,88															
03:18:33.186	COM8_115200	2000-0-0 1:30:20.880	0,178	0,976	1,834	3,052	-0,305	0,977	27,960	-5,740	-151,205				37,27															
03:18:33.201	COM3_115200	2000-0-0 1:32:40.665	-0,309	0,924	1,737	3,418	-0,488	0,427	28,015	8,405	46,615				39,76															
03:18:33.209	COM8_115200	2000-0-0 1:30:20.900	0,178	0,975	1,827	2,747	-0,427	0,427	28,015	-5,746	-151,194				37,30															
03:18:33.214	COM3_115200	2000-0-0 1:32:40.685	-0,310	0,927	1,731	2,563	0,366	0,488	28,076	8,405	46,626				39,82															
03:18:33.226	COM8_115200	2000-0-0 1:30:20.920	0,187	0,980	1,826	2,502	-0,244	0,000	28,070	-5,740	-151,194				37,17															
03:18:33.233	COM3_115200	2000-0-0 1:32:40.705	-0,322	0,928	1,729	2,747	1,465	0,427	28,130	8,427	46,642				39,88															
03:18:33.249	COM8_115200	2000-0-0 1:30:20.940	0,174	0,979	1,826	2,502	0,305	0,244	28,120	-5,729	-151,194				37,11															
03:18:33.253	COM3_115200	2000-0-0 1:32:40.725	-0,296	0,930	1,725	2,930	0,671	0,977	28,185	8,448	46,664				39,85															
03:18:33.266	COM8_115200	2000-0-0 1:30:20.960	0,183	0,979	1,823	2,747	0,916	0,305	28,169	-5,707	-151,183				37,20															
03:18:33.289	COM3_115200	2000-0-0 1:32:40.745	-0,296	0,926	1,722	2,441	0,793	1,099	28,240	8,454	46,692				39,88															
03:18:33.298	COM8_115200	2000-0-0 1:30:20.980	0,187	0,971	1,821	2,136	0,427	-0,549	28,213	-5,691	-151,177				37,17															
03:18:33.308	COM8_115200	2000-0-0 1:30:21.000	0,187	0,963	1,820	1,831	0,549	-0,549	28,251	-5,669	-151,188				37,08															
03:18:33.315	COM3_115200	2000-0-0 1:32:40.765	-0,303	0,917	1,721	1,587	1,221	1,099	28,284	8,465	46,725				39,79															
03:18:33.315	COM3_115200	2000-0-0 1:32:40.785	-0,308	0,914	1,722	1,587	1,404	0,732	28,312	8,498	46,752				39,85															
03:18:33.333	COM8_115200	2000-0-0 1:30:21.020	0,190	0,966	1,823	1,770	0,610	-0,061	28,284	-5,647	-151,183				37,23															
03:18:33.348	COM3_115200	2000-0-0 1:32:40.805	-0,299	0,913	1,720	1,709	0,916	0,183	28,345	8,520	46,769				39,88															
03:18:33.348	COM3_115200	2000-0-0 1:32:40.825	-0,301	0,922	1,714	1,770	-0,305	0,183	28,378	8,520	46,769				39,79															
03:18:33.357	COM8_115200	2000-0-0 1:30:21.040	0,176	0,971	1,819	1,831	0,366	0,061	28,317	-5,630	-151,183				37,33															
03:18:33.365	COM8_115200	2000-0-0 1:30:21.060	0,189	0,980	1,817	1,953	0,122	0,244	28,356	-5,625	-151,177				37,17															
03:18:33.375	COM3_115200	2000-0-0 1:32:40.845	-0,291	0,928	1,711	1,465	-0,183	0,244	28,405	8,520	46,769				39,79															
03:18:33.392	COM3_115200	2000-0-0 1:32:40.865	-0,298	0,930	1,712	1,282	0,000	0,366	28,427	8,514	46,780				39,85															
03:18:33.394	COM8_115200	2000-0-0 1:30:21.080	0,188	0,970	1,816	1,709	-0,610	0,000	28,389	-5,625	-151,183				37,33															
03:18:33.414	COM8_115200	2000-0-0 1:30:21.100	0,188	0,976	1,812	1,465	-0,793	-0,305	28,416	-5,636	-151,188				37,30															
03:18:33.424	COM3_115200	2000-0-0 1:32:40.885	-0,305	0,923	1,718	1,404	-0,244	-0,183	28,455	8,514	46,774				39,82															
03:18:33.429	COM8_115200	2000-0-0 1:30:21.120	0,185	0,971	1,815	1,770	-0,427	-0,488	28,444	-5,636	-151,205				37,33															
03:18:33.446	COM8_115200	2000-0-0 1:30:21.140	0,187	0,970	1,817	1,404	-0,671	-0,305	28,477	-5,641	-151,216				37,23															
03:18:33.447	COM3_115200	2000-0-0 1:32:40.905	-0,304	0,918	1,716	1,404	-0,183	-0,305	28,477	8,514	46,769				39,95															
03:18:33.452	COM3_115200	2000-0-0 1:32:40.925	-0,301	0,908	1,721	1,404	-0,061	-0,549	28,499	8,520	46,758				39,92															
03:18:33.468	COM8_115200	2000-0-0 1:30:21.160	0,187	0,966	1,811	1,038	-0,793	0,183	28,493	-5,647	-151,227				37,23															
03:18:33.468	COM3_115200	2000-0-0 1:32:40.945	-0,303	0,911	1,722	2,014	-0,183	-0,916	28,531	8,531	46,747				39,85															
03:18:33.484	COM8_115200	2000-0-0 1:30:21.180	0,183	0,971	1,815	0,854	-0,854	0,244	28,510	-5,658	-151,227				37,23															
03:18:33.493	COM3_115200	2000-0-0 1:32:40.965	-0,306	0,919	1,719	1,648	1,221	-1,038	28,559	8,553	46,730				39,82															
03:18:33.513	COM8_115200	2000-0-0 1:30:21.200	0,185	0,971	1,817	0,671	-0,610	0,183	28,521	-5,663	-151,227				37,27															
03:18:33.525	COM8_115200	2000-0-0 1:30:21.220	0,176	0,968	1,817	0,854	0,122	0,732	28,526	-5,663	-151,216				37,23															
03:18:33.525	COM3_115200	2000-0-0 1:32:40.985	-0,304	0,921	1,719	1,343	1,404	-0,854	28,581	8,586	46,725				39,92															
03:18:33.546	COM3_115200	2000-0-0 1:32:41.005	-0,316	0,914	1,725	1,465	1,648	-1,282	28,603	8,619	46,719				39,88															
03:18:33.551	COM8_115200	2000-0-0 1:30:21.240	0,176	0,972	1,819	1,343	0,305	0,732	28,542	-5,669	-151,205				37,27															
03:18:33.558	COM3_115200	2000-0-0 1:32:41.025	-0,308	0,919	1,718	1,892	1,282	-1,831	28,630	8,668	46,708				39,73															
03:18:33.574	COM8_115200	2000-0-0 1:30:21.260	0,175	0,975	1,824	1,282	0,244	0,854	28,559	-5,669	-151,188				37,14															
03:18:33.578	COM3_115200	2000-0-0 1:32:41.045	-0,312	0,930	1,724	2,197	0,488	-1,221	28,669	8,696	46,686				39,82															
03:18:33.586	COM8_115200	2000-0-0 1:30:21.280	0,199	0,980	1,821	1,404	0,000	1,038	28,581	-5,669	-151,172				37,30															
03:18:33.597	COM3_115200	2000-0-0 1:32:41.065	-0,305	0,921	1,724	1,953	1,648	-0,305	28,696	8,729	46,692				39,85															
03:18:33.605	COM8_115200	2000-0-0 1:30:21.300	0,190	0,967	1,817	2,014	0,488	1,465	28,603	-5,674	-151,150				37,20															
03:18:33.611	COM3_115200	2000-0-0 1:32:41.085	-0,299	0,918	1,720	2,075	2,441	-1,099	28,729	8,773	46,697				39,82															
03:18:33.625	COM8_115200	2000-0-0 1:30:21.320	0,178	0,980	1,821	2,869	0,610	0,488	28,647	-5,674	-151,128				37,20															
03:18:33.637	COM3_115200	2000-0-0 1:32:41.105	-0,304	0,918	1,718	2,563	1,038	-1,099	28,773	8,811	46,692				39,76															
03:18:33.647	COM8_115200	2000-0-0 1:30:21.340	0,194	0,976	1,824	2,563	-0,793	-0,671	28,696	-5,663	-151,133				37,33															
03:18:33.713	COM8_115200	2000-0-0 1:30:21.360	0,194	0,979	1,817	2,441	-0,305	-0,671	28,740	-5,658	-151,155				37,36															
03:18:33.714	COM8_115200	2000-0-0 1:30:21.380	0,179	0,969	1,818	3,174	-0,061	0,549	28,795	-5,658	-151,155				37,23															
03:18:33.716	COM8_115200	2000-0-0 1:30:21.400	0,172	0,961	1,820	3,540	0,305	1,892	28,856	-5,658	-151,128				37,14															
03:18:33.719	COM3_115200	2000-0-0 1:32:41.125	-0,335	0,916	1,720	2,563	1,526	-0,610	28,812	8,844	46,686				39,79															
03:18:33.720	COM3_115200	2000-0-0 1:32:41.145	-0,308	0,910	1,723	3,235	1,892	-0,793	28,867	8,893	46,703				39,98															
03:18:33.733	COM8_115200	2000-0-0 1:30:21.420	0,174	0,969	1,819	3,601	0,549	1,831	28,911	-5,658	-151,089				37,14															
03:18:33.733	COM3_115200	2000-0-0 1:32:41.165	-0,312	0,903	1,714	3,967	4,089	-1,343	28,927	8,954	46,708				39,76															
03:18:33.733	COM3_115200	2000-0-0 1:32:41.185	-0,308	0,914	1,711	4,333	1,465	-0,916	28,998	9,014	46,714				39,88															
03:18:33.734	COM3_115200	2000-0-0 1:32:41.205	-0,302	0,917	1,700	3,540	0,977	-0,610	29,059	9,047	46,714				39,82															
03:18:33.745	COM8_115200	2000-0-0 1:30:21.440	0,175	0,970	1,814	3,418	-1,709	1,404	28,965	-5,680	-151,068				37,33															
03:18:33.757	COM3_115200	2000-0-0 1:32:41.225	-0,307	0,919	1,702	2,930	0,916	-0,549	29,114	9,069	46,714				39,82															
03:18:33.789	COM8_115200	2000-0-0 1:30:21.460	0,199	0,962	1,815	4,028	-3,967	1,526	29,031	-5,729	-151,068				37,27															
03:18:33.790	COM3_115200	2000-0-0 1:32:41.245	-0,326	0,912	1,700	2,502	0,366	-1,526	29,152	9,091	46,697				39,79															
03:18:33.792	COM3_115200	2000-0-0 1:32:41.265	-0,318	0,904	1,701	3,235	-1,404	-2,869	29,191	9,108	46,659				39,82															
03:18:33.799	COM8_115200	2000-0-0 1:30:21.480	0,190	0,967	1,815	4,395	-3,967	2,747	29,103	-5,812	-151,068				37,23															
03:18:33.806	COM8_115200	2000-0-0 1:30:21.500	0,170	0,960	1,811	4,761	-3,296	3,723	29,185	-5,900	-151,046				37,30															
03:18:33.816	COM3_115200	2000-0-0 1:32:41.285	-0,308	0,913	1,703	4,089	-2,319	-1,587	29,246	9,091	46,599				39,79															
03:18:33.834	COM8_115200	2000-0-0 1:30:21.520	0,177	0,967	1,805	4,517	-1,648	4,028	29,262	-5,960	-150,991				37,30															
03:18:33.844	COM3_115200	2000-0-0 1:32:41.305	-0,308	0,905	1,704	3,601	-2,136	-1,831	29,301	9,058	46,544				39,82															
03:18:33.858	COM8_115200	2000-0-0 1:30:21.540	0,202	0,959	1,804	4,089	-3,540	4,333	29,323	-6,037	-150,947				37,20															
03:18:33.862	COM3_115200	2000-0-0 1:32:41.325	-0,317	0,903	1,707	4,089	-0,488	-1,892	29,355	9,053	46,500				39,95															
03:18:33.867	COM8_115200	2000-0-0 1:30:21.560	0,197	0,969	1,799	4,211	-1,709	4,883	29,383	-6,114	-150,886				37,30															
03:18:33.871	COM3_115200	2000-0-0 1:32:41.345	-0,328	0,899	1,701	5,310	0,610	-3,052	29,427	9,091	46,456				39,88															
03:18:33.888	COM8_115200	2000-0-0 1:30:21.580	0,188	0,981	1,797	4,456	-1,587	5,005	29,449	-6,185	-150,815				37,11															
03:18:33.892	COM3_115200	2000-0-0 1:32:41.365	-0,316	0,933	1,695	6,042	0,977	-2,380	29,515	9,135	46,412				39,76															
03:18:33.909	COM8_115200	2000-0-0 1:30:21.600	0,184	0,981	1,800	4,456	-1,587	4,639	29,520	-6,240	-150,743				37,30															
03:18:33.914	COM3_115200	2000-0-0 1:32:41.385	-0,312	0,922	1,700	5,493	1,221	-0,122	29,608	9,157	46,406				39,76															
03:18:33.926	COM8_115200	2000-0-0 1:30:21.620	0,192	0,973	1,791	4,211	-2,625	4,395	29,581	-6,306	-150,683				37,17															
03:18:33.938	COM3_115200	2000-0-0 1:32:41.405	-0,309	0,914	1,697	4,456	3,784	-0,061	29,685	9,218	46,439				39,82															
03:18:33.946	COM8_115200	2000-0-0 1:30:21.640	0,193	0,964	1,792	3,967	-1,892	3,662	29,641	-6,372	-150,634				37,27															
03:18:33.953	COM3_115200	2000-0-0 1:32:41.425	-0,319	0,899	1,697	5,066	5,066	-1,404	29,767	9,305	46,472				39,92															
03:18:33.969	COM8_115200	2000-0-0 1:30:21.660	0,204	0,955	1,806	4,700	-2,441	3,052	29,707	-6,432	-150,601				37,30															
03:18:33.973	COM3_115200	2000-0-0 1:32:41.445	-0,311	0,894	1,696	5,798	3,418	-2,136	29,861	9,404	46,478				39,82															
03:18:33.986	COM8_115200	2000-0-0 1:30:21.680	0,218	0,957	1,793	4,639	-2,136	4,150	29,773	-6,498	-150,562				37,20															
03:18:33.997	COM3_115200	2000-0-0 1:32:41.465	-0,309	0,892	1,700	6,531	2,075	-1,648	29,965	9,465	46,472				39,73															
03:18:34.005	COM8_115200	2000-0-0 1:30:21.700	0,209	0,951	1,789	5,127	-1,343	5,493	29,850	-6,575	-150,502				37,33															
03:18:34.012	COM3_115200	2000-0-0 1:32:41.485	-0,301	0,887	1,702	6,531	3,906	-2,319	30,070	9,536	46,467				39,82															
03:18:34.061	COM8_115200	2000-0-0 1:30:21.720	0,189	0,964	1,792	5,188	1,160	6,287	29,916	-6,614	-150,381				37,36															
03:18:34.062	COM8_115200	2000-0-0 1:30:21.740	0,208	0,963	1,800	4,517	-1,770	5,249	29,982	-6,658	-150,293				37,27															
03:18:34.066	COM3_115200	2000-0-0 1:32:41.505	-0,325	0,891	1,698	6,470	5,310	-4,089	30,168	9,646	46,450				39,76															
03:18:34.067	COM3_115200	2000-0-0 1:32:41.525	-0,319	0,915	1,682	7,080	3,052	-4,150	30,267	9,750	46,406				39,82															
03:18:34.070	COM8_115200	2000-0-0 1:30:21.760	0,211	0,967	1,792	4,395	-2,930	4,639	30,048	-6,729	-150,238				37,39															
03:18:34.076	COM3_115200	2000-0-0 1:32:41.545	-0,312	0,920	1,685	6,714	1,953	-2,808	30,372	9,816	46,373				39,73															
03:18:34.085	COM8_115200	2000-0-0 1:30:21.780	0,227	0,966	1,784	5,188	-3,296	5,188	30,114	-6,817	-150,183				37,17															
03:18:34.096	COM3_115200	2000-0-0 1:32:41.565	-0,313	0,925	1,685	6,104	2,014	-0,916	30,471	9,849	46,362				39,76															
03:18:34.113	COM3_115200	2000-0-0 1:32:41.585	-0,325	0,920	1,681	5,615	4,517	-1,526	30,553	9,921	46,379				39,76															
03:18:34.138	COM8_115200	2000-0-0 1:30:21.800	0,205	0,964	1,783	5,554	-0,977	5,127	30,190	-6,883	-150,106				37,20															
03:18:34.140	COM8_115200	2000-0-0 1:30:21.820	0,209	0,952	1,795	5,859	-2,075	4,333	30,273	-6,938	-150,040				37,27															
03:18:34.144	COM3_115200	2000-0-0 1:32:41.605	-0,330	0,898	1,679	6,226	4,822	-2,563	30,646	10,031	46,390				39,98															
03:18:34.146	COM8_115200	2000-0-0 1:30:21.840	0,211	0,941	1,793	6,531	-3,479	3,906	30,372	-7,009	-150,002				37,20															
03:18:34.151	COM3_115200	2000-0-0 1:32:41.625	-0,337	0,882	1,688	7,568	3,113	-3,113	30,756	10,124	46,384				39,85															
03:18:34.167	COM8_115200	2000-0-0 1:30:21.860	0,223	0,933	1,791	7,629	-3,235	5,493	30,476	-7,097	-149,947				37,30															
03:18:34.171	COM3_115200	2000-0-0 1:32:41.645	-0,304	0,890	1,674	9,399	1,587	-2,502	30,894	10,190	46,362				39,70															
03:18:34.188	COM8_115200	2000-0-0 1:30:21.880	0,197	0,962	1,773	7,996	0,427	6,714	30,591	-7,169	-149,848				37,20															
03:18:34.191	COM3_115200	2000-0-0 1:32:41.665	-0,307	0,880	1,674	9,888	3,784	-2,319	31,047	10,250	46,346				39,73															
03:18:34.231	COM8_115200	2000-0-0 1:30:21.900	0,211	0,962	1,783	7,813	-1,221	6,287	30,707	-7,218	-149,738				37,20															
03:18:34.231	COM3_115200	2000-0-0 1:32:41.685	-0,326	0,900	1,664	9,827	4,456	-2,136	31,207	10,333	46,357				39,79															
03:18:34.232	COM8_115200	2000-0-0 1:30:21.920	0,220	0,959	1,776	7,874	-4,272	4,883	30,828	-7,306	-149,672				37,20															
03:18:34.237	COM3_115200	2000-0-0 1:32:41.705	-0,330	0,891	1,658	10,559	4,883	-2,441	31,371	10,432	46,368				39,92															
03:18:34.248	COM8_115200	2000-0-0 1:30:21.940	0,232	0,949	1,766	8,606	-5,371	5,676	30,959	-7,432	-149,634				37,27															
03:18:34.254	COM3_115200	2000-0-0 1:32:41.725	-0,303	0,884	1,649	11,475	3,906	-2,258	31,553	10,525	46,373				39,85															
03:18:34.265	COM8_115200	2000-0-0 1:30:21.960	0,204	0,948	1,752	9,399	-3,357	6,287	31,102	-7,553	-149,573				37,14															
03:18:34.276	COM3_115200	2000-0-0 1:32:41.745	-0,310	0,882	1,657	12,268	2,258	-2,197	31,750	10,569	46,357				39,95															
03:18:34.291	COM8_115200	2000-0-0 1:30:21.980	0,224	0,957	1,759	9,460	-0,366	6,165	31,245	-7,614	-149,474				37,30															
03:18:34.307	COM8_115200	2000-0-0 1:30:22.000	0,230	0,940	1,757	8,728	-2,869	6,165	31,377	-7,696	-149,392				37,20															
03:18:34.311	COM3_115200	2000-0-0 1:32:41.765	-0,311	0,894	1,643	11,597	5,432	-1,160	31,943	10,646	46,379				39,85															
03:18:34.313	COM3_115200	2000-0-0 1:32:41.785	-0,311	0,872	1,641	11,780	9,583	-2,136	32,141	10,789	46,428				39,82															
03:18:34.328	COM8_115200	2000-0-0 1:30:22.020	0,221	0,922	1,754	9,277	-4,028	7,202	31,509	-7,811	-149,315				37,39															
03:18:34.332	COM3_115200	2000-0-0 1:32:41.805	-0,350	0,854	1,648	12,939	8,911	-3,357	32,349	10,953	46,478				39,92															
03:18:34.350	COM3_115200	2000-0-0 1:32:41.825	-0,298	0,880	1,617	13,611	3,906	-2,563	32,563	11,080	46,489				39,92															
03:18:34.366	COM8_115200	2000-0-0 1:30:22.040	0,236	0,929	1,751	9,766	-2,808	8,362	31,646	-7,927	-149,211				37,33															
03:18:34.368	COM8_115200	2000-0-0 1:30:22.060	0,219	0,937	1,737	10,254	-1,465	8,240	31,789	-8,036	-149,084				37,20															
03:18:34.372	COM3_115200	2000-0-0 1:32:41.845	-0,313	0,895	1,623	12,451	-0,183	-1,038	32,761	11,091	46,467				39,73															
03:18:34.409	COM8_115200	2000-0-0 1:30:22.080	0,245	0,944	1,733	10,254	-3,906	7,385	31,932	-8,141	-148,980				37,27															
03:18:34.413	COM8_115200	2000-0-0 1:30:22.100	0,251	0,938	1,732	10,315	-6,348	7,874	32,086	-8,300	-148,909				37,17															
03:18:34.418	COM3_115200	2000-0-0 1:32:41.865	-0,310	0,890	1,605	10,986	-0,610	0,061	32,932	11,069	46,450				39,79															
03:18:34.419	COM3_115200	2000-0-0 1:32:41.885	-0,315	0,878	1,602	10,254	-1,038	-0,916	33,074	11,047	46,428				39,79															
03:18:34.439	COM8_115200	2000-0-0 1:30:22.120	0,236	0,948	1,736	10,803	-5,859	8,179	32,239	-8,465	-148,837				37,27															
03:18:34.444	COM3_115200	2000-0-0 1:32:41.905	-0,337	0,873	1,596	10,193	-3,479	-1,770	33,212	11,008	46,379				39,79															
03:18:34.468	COM8_115200	2000-0-0 1:30:22.140	0,253	0,947	1,734	10,498	-7,629	7,629	32,393	-8,646	-148,771				37,27															
03:18:34.470	COM8_115200	2000-0-0 1:30:22.160	0,252	0,933	1,726	9,949	-11,536	7,507	32,547	-8,877	-148,755				37,33															
03:18:34.476	COM3_115200	2000-0-0 1:32:41.925	-0,311	0,890	1,594	9,338	-6,348	-0,916	33,333	10,931	46,296				39,88															
03:18:34.477	COM3_115200	2000-0-0 1:32:41.945	-0,315	0,894	1,610	7,446	-3,906	-0,122	33,431	10,827	46,230				39,82															
03:18:34.499	COM8_115200	2000-0-0 1:30:22.180	0,251	0,912	1,707	9,277	-12,756	8,850	32,684	-9,157	-148,749				37,23															
03:18:34.502	COM3_115200	2000-0-0 1:32:41.965	-0,324	0,875	1,610	6,287	-2,014	0,183	33,503	10,767	46,203				39,82															
03:18:34.511	COM8_115200	2000-0-0 1:30:22.200	0,234	0,917	1,695	8,972	-7,874	8,362	32,811	-9,388	-148,705				37,20															
03:18:34.521	COM3_115200	2000-0-0 1:32:41.985	-0,345	0,873	1,610	6,531	-0,549	-1,282	33,563	10,750	46,181				39,82															
03:18:34.533	COM8_115200	2000-0-0 1:30:22.220	0,232	0,927	1,705	8,362	-5,249	6,042	32,921	-9,531	-148,645				37,20															
03:18:34.537	COM3_115200	2000-0-0 1:32:42.005	-0,315	0,882	1,594	6,897	-2,686	-1,160	33,635	10,728	46,132				39,85															
03:18:34.549	COM8_115200	2000-0-0 1:30:22.240	0,257	0,934	1,709	7,935	-4,639	5,005	33,025	-9,635	-148,607				37,20															
03:18:34.555	COM3_115200	2000-0-0 1:32:42.025	-0,312	0,875	1,600	7,324	-1,343	0,122	33,712	10,673	46,093				39,85															
03:18:34.566	COM8_115200	2000-0-0 1:30:22.260	0,266	0,929	1,699	7,874	-4,578	5,798	33,118	-9,745	-148,574				37,27															
03:18:34.570	COM3_115200	2000-0-0 1:32:42.045	-0,322	0,871	1,603	6,653	-0,305	1,343	33,783	10,640	46,099				39,88															
03:18:34.588	COM8_115200	2000-0-0 1:30:22.280	0,258	0,935	1,688	7,813	-3,052	5,981	33,212	-9,844	-148,513				37,30															
03:18:34.592	COM3_115200	2000-0-0 1:32:42.065	-0,327	0,866	1,595	6,348	0,549	0,854	33,849	10,635	46,121				39,88															
03:18:34.608	COM8_115200	2000-0-0 1:30:22.300	0,242	0,929	1,695	7,019	-2,319	5,493	33,294	-9,915	-148,436				37,23															
03:18:34.611	COM3_115200	2000-0-0 1:32:42.085	-0,315	0,849	1,598	6,592	0,427	-0,793	33,915	10,640	46,126				39,73															
03:18:34.633	COM8_115200	2000-0-0 1:30:22.320	0,258	0,925	1,713	6,592	-3,357	4,700	33,365	-9,970	-148,376				37,27															
03:18:34.638	COM3_115200	2000-0-0 1:32:42.105	-0,309	0,850	1,595	7,385	0,854	-1,038	33,986	10,646	46,115				39,92															
03:18:34.646	COM8_115200	2000-0-0 1:30:22.340	0,271	0,917	1,699	6,592	-3,906	6,409	33,426	-10,063	-148,321				37,20															
03:18:34.650	COM3_115200	2000-0-0 1:32:42.125	-0,307	0,845	1,602	7,874	-1,099	-0,732	34,069	10,635	46,093				39,82															
03:18:34.674	COM3_115200	2000-0-0 1:32:42.145	-0,311	0,837	1,604	9,460	-0,854	-1,343	34,162	10,629	46,060				39,82															
03:18:34.683	COM8_115200	2000-0-0 1:30:22.360	0,252	0,906	1,691	7,507	-1,831	7,324	33,492	-10,162	-148,233				37,23															
03:18:34.686	COM8_115200	2000-0-0 1:30:22.380	0,261	0,916	1,695	7,935	1,282	7,385	33,563	-10,206	-148,096				37,27															
03:18:34.689	COM3_115200	2000-0-0 1:32:42.165	-0,351	0,834	1,602	11,292	-0,122	-2,380	34,294	10,640	46,022				39,76															
03:18:34.710	COM3_115200	2000-0-0 1:32:42.185	-0,317	0,881	1,572	12,756	-4,395	0,549	34,453	10,602	45,972				39,70															
03:18:34.714	COM8_115200	2000-0-0 1:30:22.400	0,269	0,905	1,700	8,301	0,122	7,385	33,640	-10,245	-147,964				37,27															
03:18:34.725	COM8_115200	2000-0-0 1:30:22.420	0,276	0,920	1,682	8,789	-0,244	8,118	33,723	-10,300	-147,827				37,36															
03:18:34.737	COM3_115200	2000-0-0 1:32:42.205	-0,304	0,899	1,580	11,597	-7,568	3,174	34,612	10,453	45,923				39,76															
03:18:34.746	COM8_115200	2000-0-0 1:30:22.440	0,273	0,935	1,669	9,521	-0,305	6,958	33,821	-10,360	-147,700				37,17															
03:18:34.749	COM3_115200	2000-0-0 1:32:42.225	-0,311	0,912	1,569	10,010	-4,456	4,089	34,750	10,311	45,923				39,92															
03:18:34.778	COM8_115200	2000-0-0 1:30:22.460	0,274	0,936	1,674	9,399	-1,953	3,845	33,931	-10,404	-147,623				37,30															
03:18:34.781	COM3_115200	2000-0-0 1:32:42.245	-0,315	0,892	1,550	9,277	-1,709	3,357	34,871	10,223	45,950				39,88															
03:18:34.803	COM8_115200	2000-0-0 1:30:22.480	0,276	0,926	1,675	8,728	-6,714	2,441	34,052	-10,481	-147,623				37,27															
03:18:34.806	COM3_115200	2000-0-0 1:32:42.265	-0,321	0,862	1,562	9,521	1,770	2,319	34,997	10,201	46,005				39,79															
03:18:34.807	COM8_115200	2000-0-0 1:30:22.500	0,280	0,898	1,669	8,972	-9,216	3,601	34,173	-10,624	-147,667				37,17															
03:18:34.826	COM8_115200	2000-0-0 1:30:22.520	0,273	0,878	1,661	8,850	-6,592	4,700	34,283	-10,772	-147,684				37,11															
03:18:34.833	COM3_115200	2000-0-0 1:32:42.285	-0,311	0,833	1,571	10,193	2,014	1,831	35,129	10,206	46,060				39,88															
03:18:34.834	COM3_115200	2000-0-0 1:32:42.305	-0,316	0,822	1,579	10,498	1,404	1,099	35,266	10,212	46,099				39,70															
03:18:34.846	COM8_115200	2000-0-0 1:30:22.540	0,264	0,879	1,659	8,423	-3,418	5,554	34,382	-10,876	-147,645				37,20															
03:18:34.849	COM3_115200	2000-0-0 1:32:42.325	-0,313	0,823	1,575	10,315	-0,732	0,305	35,392	10,206	46,110				39,85															
03:18:34.864	COM3_115200	2000-0-0 1:32:42.345	-0,316	0,823	1,565	10,742	-2,319	-1,465	35,513	10,173	46,071				39,82															
03:18:34.864	COM8_115200	2000-0-0 1:30:22.560	0,278	0,884	1,660	8,179	-1,343	5,737	34,459	-10,937	-147,568				37,30															
03:18:34.888	COM8_115200	2000-0-0 1:30:22.580	0,289	0,880	1,648	7,813	-0,793	6,897	34,525	-10,997	-147,469				37,23															
03:18:34.893	COM3_115200	2000-0-0 1:32:42.365	-0,329	0,832	1,548	11,597	-0,671	-2,563	35,640	10,173	46,016				39,88															
03:18:34.907	COM8_115200	2000-0-0 1:30:22.600	0,274	0,891	1,633	7,629	2,014	7,813	34,579	-11,036	-147,327				37,20															
03:18:34.911	COM3_115200	2000-0-0 1:32:42.385	-0,323	0,874	1,558	10,376	-3,540	-1,587	35,760	10,157	45,961				39,88															
03:18:34.928	COM8_115200	2000-0-0 1:30:22.620	0,279	0,926	1,634	6,531	3,967	6,897	34,612	-11,019	-147,156				37,14															
03:18:34.932	COM3_115200	2000-0-0 1:32:42.405	-0,318	0,888	1,544	7,751	-1,648	-1,770	35,837	10,129	45,901				39,95															
03:18:34.949	COM8_115200	2000-0-0 1:30:22.640	0,297	0,922	1,638	5,615	3,540	5,127	34,629	-10,986	-147,008				37,14															
03:18:34.954	COM3_115200	2000-0-0 1:32:42.425	-0,326	0,870	1,535	6,470	3,357	-2,991	35,881	10,179	45,873				39,76															
03:18:34.965	COM8_115200	2000-0-0 1:30:22.660	0,300	0,912	1,640	4,883	1,648	5,188	34,640	-10,981	-146,898				37,27															
03:18:34.973	COM3_115200	2000-0-0 1:32:42.445	-0,317	0,846	1,542	6,348	7,263	-3,845	35,925	10,327	45,895				39,85															
03:18:34.986	COM8_115200	2000-0-0 1:30:22.680	0,293	0,892	1,648	5,127	0,366	5,554	34,651	-10,997	-146,799				37,27															
03:18:34.989	COM3_115200	2000-0-0 1:32:42.465	-0,308	0,843	1,547	6,714	6,348	-2,991	35,980	10,475	45,923				39,85															
03:18:35.009	COM8_115200	2000-0-0 1:30:22.700	0,297	0,880	1,648	6,409	1,465	5,432	34,684	-11,014	-146,689				37,20															
03:18:35.013	COM3_115200	2000-0-0 1:32:42.485	-0,304	0,845	1,547	6,592	2,991	-2,014	36,030	10,563	45,934				39,79															
03:18:35.025	COM8_115200	2000-0-0 1:30:22.720	0,287	0,888	1,655	7,324	3,296	3,784	34,728	-10,986	-146,580				37,23															
03:18:35.031	COM3_115200	2000-0-0 1:32:42.505	-0,307	0,835	1,549	6,348	3,479	-3,052	36,063	10,624	45,928				39,82															
03:18:35.064	COM8_115200	2000-0-0 1:30:22.740	0,305	0,877	1,658	8,057	2,441	3,235	34,788	-10,948	-146,486				37,23															
03:18:35.066	COM8_115200	2000-0-0 1:30:22.760	0,313	0,865	1,651	8,850	0,549	4,395	34,871	-10,959	-146,409				37,14															
03:18:35.072	COM3_115200	2000-0-0 1:32:42.525	-0,315	0,817	1,547	7,385	5,676	-4,333	36,112	10,734	45,923				39,92															
03:18:35.073	COM3_115200	2000-0-0 1:32:42.545	-0,324	0,815	1,547	9,888	3,906	-4,272	36,194	10,849	45,906				39,85															
03:18:35.094	COM8_115200	2000-0-0 1:30:22.780	0,299	0,870	1,641	10,742	3,723	4,578	34,975	-10,948	-146,299				37,14															
03:18:35.098	COM3_115200	2000-0-0 1:32:42.565	-0,313	0,844	1,543	11,292	2,014	-3,052	36,310	10,926	45,879				39,85															
03:18:35.105	COM8_115200	2000-0-0 1:30:22.800	0,295	0,897	1,637	11,658	8,362	3,601	35,096	-10,860	-146,146				37,20															
03:18:35.110	COM3_115200	2000-0-0 1:32:42.585	-0,319	0,843	1,545	11,047	1,099	-2,563	36,436	10,970	45,846				39,98															
03:18:35.146	COM8_115200	2000-0-0 1:30:22.820	0,296	0,888	1,642	10,986	5,127	3,113	35,217	-10,761	-146,008				37,17															
03:18:35.146	COM8_115200	2000-0-0 1:30:22.840	0,310	0,872	1,635	11,292	2,930	3,967	35,332	-10,723	-145,904				37,33															
03:18:35.150	COM3_115200	2000-0-0 1:32:42.605	-0,320	0,835	1,535	11,536	5,676	-3,784	36,568	11,058	45,835				39,82															
03:18:35.151	COM3_115200	2000-0-0 1:32:42.625	-0,327	0,806	1,542	13,611	8,667	-4,272	36,733	11,223	45,862				39,79															
03:18:35.178	COM8_115200	2000-0-0 1:30:22.860	0,321	0,862	1,637	11,719	5,981	4,395	35,453	-10,684	-145,783				37,23															
03:18:35.179	COM3_115200	2000-0-0 1:32:42.645	-0,298	0,816	1,525	15,320	7,996	-3,845	36,925	11,393	45,890				39,95															
03:18:35.185	COM8_115200	2000-0-0 1:30:22.880	0,306	0,884	1,627	12,024	9,888	4,272	35,574	-10,591	-145,607				37,20															
03:18:35.190	COM3_115200	2000-0-0 1:32:42.665	-0,325	0,813	1,530	16,296	10,193	-3,784	37,150	11,569	45,939				39,70															
03:18:35.208	COM8_115200	2000-0-0 1:30:22.900	0,303	0,889	1,632	11,719	10,254	3,845	35,689	-10,453	-145,410				37,20															
03:18:35.212	COM3_115200	2000-0-0 1:32:42.685	-0,324	0,827	1,518	16,174	9,521	-2,991	37,381	11,750	46,005				39,82															
03:18:35.229	COM8_115200	2000-0-0 1:30:22.920	0,308	0,885	1,626	11,841	7,385	3,967	35,804	-10,344	-145,245				37,33															
03:18:35.238	COM3_115200	2000-0-0 1:32:42.705	-0,316	0,803	1,505	16,418	8,972	-2,991	37,606	11,920	46,071				39,82															
03:18:35.250	COM3_115200	2000-0-0 1:32:42.725	-0,313	0,812	1,489	16,907	5,554	-1,892	37,837	12,030	46,110				39,85															
03:18:35.258	COM8_115200	2000-0-0 1:30:22.940	0,317	0,895	1,621	11,963	8,118	3,601	35,925	-10,250	-145,085				37,23															
03:18:35.279	COM3_115200	2000-0-0 1:32:42.745	-0,336	0,836	1,487	16,541	6,042	-0,244	38,068	12,112	46,170				39,88															
03:18:35.280	COM8_115200	2000-0-0 1:30:22.960	0,321	0,894	1,620	11,169	6,470	3,357	36,035	-10,168	-144,943				37,27															
03:18:35.287	COM8_115200	2000-0-0 1:30:22.980	0,328	0,881	1,622	11,475	4,211	3,296	36,156	-10,113	-144,827				37,14															
03:18:35.298	COM3_115200	2000-0-0 1:32:42.765	-0,308	0,830	1,486	15,808	5,737	0,977	38,287	12,184	46,247				39,95															
03:18:35.312	COM8_115200	2000-0-0 1:30:23.000	0,329	0,875	1,615	11,719	4,700	2,747	36,282	-10,080	-144,728				37,30															
03:18:35.326	COM3_115200	2000-0-0 1:32:42.785	-0,320	0,813	1,459	14,465	5,188	0,427	38,485	12,239	46,307				39,88															
03:18:35.328	COM3_115200	2000-0-0 1:32:42.805	-0,326	0,828	1,464	12,695	1,648	1,038	38,639	12,255	46,357				39,79															
03:18:35.331	COM8_115200	2000-0-0 1:30:23.020	0,328	0,884	1,608	10,803	3,906	1,648	36,398	-10,031	-144,641				37,30															
03:18:35.347	COM8_115200	2000-0-0 1:30:23.040	0,319	0,878	1,608	10,254	0,977	1,282	36,508	-10,003	-144,591				37,23															
03:18:35.352	COM3_115200	2000-0-0 1:32:42.825	-0,301	0,837	1,454	11,292	2,991	1,404	38,771	12,261	46,406				39,73															
03:18:35.369	COM3_115200	2000-0-0 1:32:42.845	-0,301	0,805	1,460	10,620	4,700	1,282	38,886	12,283	46,472				39,88															
03:18:35.380	COM8_115200	2000-0-0 1:30:23.060	0,317	0,857	1,610	10,620	-1,526	1,465	36,617	-10,020	-144,575				37,14															
03:18:35.392	COM3_115200	2000-0-0 1:32:42.865	-0,316	0,782	1,459	11,169	4,272	0,671	38,996	12,321	46,538				39,79															
03:18:35.401	COM8_115200	2000-0-0 1:30:23.080	0,329	0,842	1,612	11,414	-2,258	2,136	36,738	-10,069	-144,564				37,30															
03:18:35.406	COM8_115200	2000-0-0 1:30:23.100	0,312	0,840	1,604	11,719	-0,549	2,563	36,865	-10,113	-144,536				37,23															
03:18:35.411	COM3_115200	2000-0-0 1:32:42.885	-0,316	0,765	1,460	12,024	0,061	0,305	39,117	12,332	46,571				39,92															
03:18:35.428	COM8_115200	2000-0-0 1:30:23.120	0,319	0,866	1,601	11,414	2,319	2,197	36,980	-10,107	-144,476				37,30															
03:18:35.433	COM3_115200	2000-0-0 1:32:42.905	-0,291	0,810	1,457	11,719	-8,728	2,991	39,221	12,189	46,522				39,82															
03:18:35.450	COM8_115200	2000-0-0 1:30:23.140	0,330	0,865	1,595	11,047	-0,793	2,014	37,084	-10,118	-144,443				37,27															
03:18:35.453	COM3_115200	2000-0-0 1:32:42.925	-0,311	0,803	1,449	10,620	-7,263	3,601	39,309	11,997	46,461				39,85															
03:18:35.463	COM8_115200	2000-0-0 1:30:23.160	0,329	0,849	1,587	11,047	-4,639	2,686	37,194	-10,206	-144,448				37,23															
03:18:35.463	COM3_115200	2000-0-0 1:32:42.945	-0,311	0,788	1,444	10,986	-5,005	2,930	39,391	11,854	46,434				39,85															
03:18:35.480	COM8_115200	2000-0-0 1:30:23.180	0,323	0,843	1,585	11,414	-3,235	2,930	37,310	-10,300	-144,448				37,33															
03:18:35.514	COM8_115200	2000-0-0 1:30:23.200	0,312	0,857	1,578	11,108	-2,441	2,441	37,430	-10,371	-144,432				37,27															
03:18:35.514	COM3_115200	2000-0-0 1:32:42.965	-0,323	0,782	1,455	11,719	-4,944	2,136	39,485	11,733	46,401				39,85															
03:18:35.514	COM3_115200	2000-0-0 1:32:42.985	-0,313	0,783	1,449	12,146	-6,470	2,441	39,584	11,602	46,351				39,76															
03:18:35.530	COM8_115200	2000-0-0 1:30:23.220	0,315	0,852	1,572	10,193	-2,075	2,991	37,529	-10,426	-144,410				37,30															
03:18:35.546	COM3_115200	2000-0-0 1:32:43.005	-0,304	0,785	1,443	11,963	-6,409	2,869	39,688	11,448	46,307				39,88															
03:18:35.551	COM3_115200	2000-0-0 1:32:43.025	-0,318	0,774	1,453	11,597	-5,188	2,808	39,781	11,310	46,280				39,88															
03:18:35.556	COM8_115200	2000-0-0 1:30:23.240	0,330	0,856	1,564	9,338	-2,686	3,052	37,606	-10,492	-144,388				37,20															
03:18:35.567	COM8_115200	2000-0-0 1:30:23.260	0,317	0,848	1,553	9,033	-2,441	3,174	37,672	-10,574	-144,371				37,14															
03:18:35.571	COM3_115200	2000-0-0 1:32:43.045	-0,325	0,773	1,442	11,658	-2,258	1,709	39,880	11,234	46,274				39,85															
03:18:35.586	COM8_115200	2000-0-0 1:30:23.280	0,314	0,851	1,562	8,057	-1,770	2,686	37,727	-10,635	-144,344				37,39															
03:18:35.590	COM3_115200	2000-0-0 1:32:43.065	-0,318	0,769	1,440	12,634	-1,099	1,404	39,985	11,195	46,274				39,88															
03:18:35.607	COM8_115200	2000-0-0 1:30:23.300	0,331	0,848	1,561	7,935	-1,587	2,747	37,771	-10,684	-144,322				37,23															
03:18:35.611	COM3_115200	2000-0-0 1:32:43.085	-0,313	0,750	1,438	13,428	-0,427	0,671	40,106	11,168	46,274				39,76															
03:18:35.628	COM3_115200	2000-0-0 1:32:43.105	-0,323	0,743	1,451	14,099	0,000	1,648	40,243	11,146	46,296				39,88															
03:18:35.629	COM8_115200	2000-0-0 1:30:23.320	0,326	0,837	1,553	8,179	-2,319	3,296	37,820	-10,750	-144,300				37,14															
03:18:35.645	COM8_115200	2000-0-0 1:30:23.340	0,310	0,831	1,552	8,667	-0,549	3,967	37,870	-10,811	-144,250				37,27															
03:18:35.649	COM3_115200	2000-0-0 1:32:43.125	-0,311	0,758	1,443	14,526	0,305	0,732	40,386	11,135	46,313				39,82															
03:18:35.671	COM3_115200	2000-0-0 1:32:43.145	-0,322	0,744	1,429	15,503	0,977	0,549	40,540	11,135	46,324				39,70															
03:18:35.674	COM8_115200	2000-0-0 1:30:23.360	0,320	0,838	1,561	8,972	1,221	4,028	37,919	-10,833	-144,168				37,27															
03:18:35.706	COM8_115200	2000-0-0 1:30:23.380	0,328	0,835	1,551	9,399	0,977	4,272	37,974	-10,865	-144,086				37,30															
03:18:35.707	COM3_115200	2000-0-0 1:32:43.165	-0,307	0,767	1,412	15,625	-1,099	2,319	40,704	11,107	46,346				39,76															
03:18:35.708	COM3_115200	2000-0-0 1:32:43.185	-0,314	0,760	1,419	14,771	-1,709	1,953	40,853	11,058	46,357				39,88															
03:18:35.713	COM8_115200	2000-0-0 1:30:23.400	0,333	0,821	1,555	10,376	-0,122	4,272	38,040	-10,904	-144,009				37,17															
03:18:35.725	COM8_115200	2000-0-0 1:30:23.420	0,341	0,820	1,546	11,536	-0,122	3,601	38,134	-10,948	-143,948				37,27															
03:18:35.729	COM3_115200	2000-0-0 1:32:43.205	-0,326	0,754	1,417	14,465	-0,977	-0,061	40,990	11,025	46,357				39,88															
03:18:35.744	COM8_115200	2000-0-0 1:30:23.440	0,333	0,831	1,545	12,146	1,221	3,418	38,243	-10,975	-143,888				37,27															
03:18:35.749	COM3_115200	2000-0-0 1:32:43.225	-0,323	0,753	1,394	14,526	-1,587	-0,610	41,122	11,014	46,329				39,82															
03:18:35.766	COM8_115200	2000-0-0 1:30:23.460	0,341	0,835	1,539	11,841	1,038	4,150	38,342	-10,997	-143,800				37,20															
03:18:35.769	COM3_115200	2000-0-0 1:32:43.245	-0,317	0,748	1,400	14,404	-2,319	0,122	41,248	10,981	46,302				39,82															
03:18:35.789	COM3_115200	2000-0-0 1:32:43.265	-0,301	0,766	1,398	13,550	-2,686	1,099	41,364	10,937	46,285				39,88															
03:18:35.793	COM8_115200	2000-0-0 1:30:23.480	0,334	0,826	1,543	12,146	-1,038	5,127	38,447	-11,052	-143,729				37,23															
03:18:35.806	COM8_115200	2000-0-0 1:30:23.500	0,338	0,813	1,539	13,123	-1,892	4,761	38,568	-11,135	-143,663				37,11															
03:18:35.811	COM3_115200	2000-0-0 1:32:43.285	-0,308	0,756	1,410	12,939	-1,770	-0,549	41,462	10,904	46,252				39,85															
03:18:35.825	COM8_115200	2000-0-0 1:30:23.520	0,331	0,818	1,543	13,672	-0,732	3,845	38,705	-11,201	-143,613				37,23															
03:18:35.837	COM3_115200	2000-0-0 1:32:43.305	-0,328	0,739	1,393	13,672	0,549	-1,709	41,561	10,920	46,225				39,88															
03:18:35.848	COM8_115200	2000-0-0 1:30:23.540	0,324	0,817	1,535	13,611	-2,502	3,845	38,842	-11,266	-143,569				37,17															
03:18:35.851	COM3_115200	2000-0-0 1:32:43.325	-0,325	0,737	1,401	13,916	0,732	-1,831	41,677	10,959	46,208				39,82															
03:18:35.884	COM8_115200	2000-0-0 1:30:23.560	0,334	0,806	1,522	14,282	-3,784	4,761	38,985	-11,365	-143,536				37,30															
03:18:35.886	COM8_115200	2000-0-0 1:30:23.580	0,329	0,802	1,510	15,076	-0,061	3,784	39,139	-11,437	-143,492				37,23															
03:18:35.889	COM3_115200	2000-0-0 1:32:43.345	-0,297	0,739	1,405	14,343	-1,099	-0,732	41,792	10,970	46,192				39,85															
03:18:35.890	COM3_115200	2000-0-0 1:32:43.365	-0,317	0,730	1,398	15,137	1,160	-0,427	41,924	10,975	46,181				39,85															
03:18:35.911	COM8_115200	2000-0-0 1:30:23.600	0,333	0,808	1,510	14,771	3,174	3,174	39,282	-11,442	-143,410				37,20															
03:18:35.912	COM3_115200	2000-0-0 1:32:43.385	-0,319	0,711	1,385	16,296	2,075	-0,305	42,072	11,008	46,203				39,95															
03:18:35.928	COM8_115200	2000-0-0 1:30:23.620	0,349	0,797	1,504	14,648	1,648	2,686	39,430	-11,437	-143,333				37,08															
03:18:35.932	COM3_115200	2000-0-0 1:32:43.405	-0,317	0,720	1,381	16,968	2,136	1,221	42,242	11,036	46,241				39,85															
03:18:35.946	COM8_115200	2000-0-0 1:30:23.640	0,354	0,789	1,491	15,320	4,089	2,380	39,573	-11,415	-143,245				37,23															
03:18:35.950	COM3_115200	2000-0-0 1:32:43.425	-0,299	0,714	1,368	17,700	0,000	1,709	42,424	11,036	46,274				39,79															
03:18:35.968	COM8_115200	2000-0-0 1:30:23.660	0,337	0,792	1,487	15,198	6,348	2,380	39,727	-11,354	-143,135				37,20															
03:18:35.972	COM3_115200	2000-0-0 1:32:43.445	-0,313	0,692	1,360	18,433	-1,770	1,282	42,610	11,003	46,280				39,76															
03:18:35.988	COM3_115200	2000-0-0 1:32:43.465	-0,320	0,700	1,351	18,555	-1,160	1,526	42,803	10,970	46,291				39,98															
03:18:35.989	COM8_115200	2000-0-0 1:30:23.680	0,356	0,789	1,491	14,404	7,935	2,625	39,853	-11,261	-142,987				37,27															
03:18:36.006	COM8_115200	2000-0-0 1:30:23.700	0,363	0,793	1,482	13,184	7,141	3,174	39,952	-11,190	-142,844				37,14															
03:18:36.009	COM3_115200	2000-0-0 1:32:43.485	-0,302	0,710	1,338	17,578	-2,380	2,075	42,979	10,926	46,280				39,85															
03:18:36.028	COM3_115200	2000-0-0 1:32:43.505	-0,319	0,689	1,340	16,846	-2,319	0,793	43,127	10,882	46,269				39,88															
03:18:36.037	COM8_115200	2000-0-0 1:30:23.720	0,356	0,788	1,476	11,902	5,493	4,272	40,029	-11,157	-142,701				37,20															
03:18:36.046	COM3_115200	2000-0-0 1:32:43.525	-0,297	0,699	1,332	16,663	-1,709	1,038	43,275	10,849	46,258				39,82															
03:18:36.057	COM8_115200	2000-0-0 1:30:23.740	0,344	0,782	1,484	10,620	5,615	5,432	40,078	-11,135	-142,548				37,30															
03:18:36.066	COM8_115200	2000-0-0 1:30:23.760	0,363	0,771	1,481	10,254	4,028	5,188	40,111	-11,135	-142,399				37,27															
03:18:36.067	COM3_115200	2000-0-0 1:32:43.545	-0,313	0,679	1,321	16,541	0,549	0,305	43,418	10,844	46,258				39,79															
03:18:36.085	COM8_115200	2000-0-0 1:30:23.780	0,361	0,765	1,478	10,864	2,014	5,005	40,155	-11,173	-142,289				37,20															
03:18:36.089	COM3_115200	2000-0-0 1:32:43.565	-0,306	0,688	1,325	15,991	-1,465	0,366	43,550	10,844	46,252				39,85															
03:18:36.107	COM8_115200	2000-0-0 1:30:23.800	0,352	0,768	1,479	12,085	0,366	5,127	40,221	-11,234	-142,191				37,30															
03:18:36.110	COM3_115200	2000-0-0 1:32:43.585	-0,315	0,694	1,330	14,893	-2,930	0,000	43,654	10,822	46,214				39,85															
03:18:36.126	COM3_115200	2000-0-0 1:32:43.605	-0,317	0,688	1,328	15,076	-3,601	0,488	43,748	10,778	46,176				39,95															
03:18:36.129	COM8_115200	2000-0-0 1:30:23.820	0,357	0,765	1,474	12,268	1,038	4,761	40,292	-11,288	-142,103				37,23															
03:18:36.145	COM8_115200	2000-0-0 1:30:23.840	0,360	0,766	1,467	11,902	1,770	4,578	40,364	-11,343	-142,015				37,20															
03:18:36.151	COM3_115200	2000-0-0 1:32:43.625	-0,329	0,671	1,314	15,686	-3,601	0,427	43,857	10,734	46,137				39,70															
03:18:36.167	COM8_115200	2000-0-0 1:30:23.860	0,362	0,771	1,455	11,902	2,197	4,761	40,430	-11,376	-141,916				37,33															
03:18:36.171	COM3_115200	2000-0-0 1:32:43.645	-0,313	0,686	1,313	15,442	-4,700	2,380	43,973	10,668	46,115				39,92															
03:18:36.187	COM3_115200	2000-0-0 1:32:43.665	-0,313	0,694	1,314	14,771	-4,944	3,540	44,066	10,563	46,088				39,82															
03:18:36.188	COM8_115200	2000-0-0 1:30:23.880	0,357	0,766	1,457	12,390	0,671	4,944	40,501	-11,426	-141,817				37,17															
03:18:36.205	COM8_115200	2000-0-0 1:30:23.900	0,360	0,762	1,461	13,184	1,282	4,517	40,589	-11,475	-141,735				37,20															
03:18:36.210	COM3_115200	2000-0-0 1:32:43.685	-0,329	0,669	1,312	14,771	-1,831	1,831	44,160	10,503	46,082				39,92															
03:18:36.269	COM8_115200	2000-0-0 1:30:23.920	0,369	0,754	1,448	13,245	1,099	4,272	40,682	-11,525	-141,652				37,08															
03:18:36.271	COM8_115200	2000-0-0 1:30:23.940	0,376	0,750	1,442	13,184	1,038	4,272	40,776	-11,580	-141,570				37,23															
03:18:36.272	COM8_115200	2000-0-0 1:30:23.960	0,376	0,771	1,443	12,817	1,404	3,540	40,864	-11,613	-141,493				37,23															
03:18:36.276	COM3_115200	2000-0-0 1:32:43.705	-0,336	0,653	1,306	15,015	-0,488	0,977	44,253	10,492	46,093				39,76															
03:18:36.276	COM3_115200	2000-0-0 1:32:43.725	-0,313	0,680	1,303	13,672	-0,732	1,953	44,341	10,475	46,115				39,95															
03:18:36.299	COM8_115200	2000-0-0 1:30:23.980	0,372	0,762	1,428	11,597	0,488	3,052	40,935	-11,662	-141,427				37,23															
03:18:36.302	COM3_115200	2000-0-0 1:32:43.745	-0,321	0,687	1,303	11,963	-1,282	1,709	44,385	10,453	46,121				39,85															
03:18:36.303	COM3_115200	2000-0-0 1:32:43.765	-0,324	0,669	1,295	11,414	1,648	0,977	44,418	10,475	46,159				39,88															
03:18:36.308	COM8_115200	2000-0-0 1:30:24.000	0,376	0,753	1,431	11,108	0,000	3,235	40,990	-11,706	-141,372				37,17															
03:18:36.313	COM3_115200	2000-0-0 1:32:43.785	-0,316	0,658	1,280	10,864	4,211	0,671	44,445	10,530	46,225				39,88															
03:18:36.347	COM8_115200	2000-0-0 1:30:24.020	0,389	0,746	1,435	10,803	-2,075	3,601	41,045	-11,777	-141,334				37,14															
03:18:36.348	COM8_115200	2000-0-0 1:30:24.040	0,387	0,747	1,433	10,437	0,793	2,930	41,089	-11,843	-141,284				37,17															
03:18:36.352	COM3_115200	2000-0-0 1:32:43.805	-0,310	0,680	1,282	9,399	2,625	2,319	44,451	10,574	46,302				39,76															
03:18:36.352	COM3_115200	2000-0-0 1:32:43.825	-0,309	0,668	1,287	7,751	1,953	1,709	44,423	10,602	46,368				39,79															
03:18:36.365	COM8_115200	2000-0-0 1:30:24.060	0,383	0,747	1,427	8,179	1,770	2,502	41,094	-11,871	-141,218				37,20															
03:18:36.369	COM3_115200	2000-0-0 1:32:43.845	-0,319	0,646	1,282	6,897	2,380	0,000	44,374	10,651	46,412				39,79															
03:18:36.385	COM3_115200	2000-0-0 1:32:43.865	-0,314	0,646	1,274	6,165	0,732	-0,305	44,302	10,695	46,439				39,92															
03:18:36.404	COM8_115200	2000-0-0 1:30:24.080	0,392	0,734	1,431	7,202	0,000	3,174	41,072	-11,915	-141,169				37,01															
03:18:36.407	COM8_115200	2000-0-0 1:30:24.100	0,395	0,725	1,429	7,080	0,854	3,418	41,034	-11,964	-141,108				37,30															
03:18:36.423	COM3_115200	2000-0-0 1:32:43.885	-0,273	0,644	1,275	5,432	-4,333	0,061	44,203	10,679	46,406				39,88															
03:18:36.426	COM3_115200	2000-0-0 1:32:43.905	-0,341	0,640	1,283	4,700	-0,244	-0,977	44,083	10,640	46,351				39,82															
03:18:36.432	COM8_115200	2000-0-0 1:30:24.120	0,363	0,742	1,426	5,371	4,517	3,052	40,968	-11,981	-141,015				37,36															
03:18:36.445	COM3_115200	2000-0-0 1:32:43.925	-0,323	0,659	1,299	5,249	4,578	-0,427	43,989	10,761	46,428				39,88															
03:18:36.453	COM8_115200	2000-0-0 1:30:24.140	0,376	0,750	1,417	3,418	3,967	4,028	40,864	-11,975	-140,900				37,27															
03:18:36.465	COM3_115200	2000-0-0 1:32:43.945	-0,297	0,635	1,300	5,859	6,042	-0,732	43,912	10,860	46,500				39,79															
03:18:36.469	COM8_115200	2000-0-0 1:30:24.160	0,387	0,735	1,425	2,502	3,357	4,089	40,732	-11,992	-140,795				37,20															
03:18:36.484	COM3_115200	2000-0-0 1:32:43.965	-0,309	0,635	1,306	7,080	2,991	-0,061	43,846	10,926	46,555				39,95															
03:18:36.488	COM8_115200	2000-0-0 1:30:24.180	0,389	0,720	1,430	3,296	3,784	3,418	40,616	-12,003	-140,696				37,23															
03:18:36.506	COM3_115200	2000-0-0 1:32:43.985	-0,294	0,643	1,291	7,507	0,793	0,977	43,797	10,964	46,593				39,82															
03:18:36.514	COM8_115200	2000-0-0 1:30:24.200	0,399	0,729	1,446	4,517	5,920	2,869	40,518	-11,975	-140,576				37,23															
03:18:36.525	COM3_115200	2000-0-0 1:32:44.005	-0,301	0,635	1,302	7,507	-1,160	0,549	43,742	10,964	46,593				39,82															
03:18:36.534	COM8_115200	2000-0-0 1:30:24.220	0,384	0,729	1,444	5,005	6,592	2,625	40,435	-11,931	-140,449				37,20															
03:18:36.545	COM3_115200	2000-0-0 1:32:44.025	-0,292	0,645	1,292	7,996	0,061	-0,244	43,693	10,970	46,604				39,88															
03:18:36.553	COM8_115200	2000-0-0 1:30:24.240	0,387	0,720	1,451	6,287	4,761	2,502	40,369	-11,898	-140,339				37,27															
03:18:36.568	COM8_115200	2000-0-0 1:30:24.260	0,406	0,710	1,453	7,507	3,845	2,502	40,331	-11,882	-140,246				37,17															
03:18:36.572	COM3_115200	2000-0-0 1:32:44.045	-0,312	0,632	1,296	9,094	0,427	-0,305	43,665	10,992	46,604				39,79															
03:18:36.586	COM3_115200	2000-0-0 1:32:44.065	-0,301	0,649	1,292	9,460	0,000	-0,244	43,649	11,014	46,609				39,88															
03:18:36.587	COM8_115200	2000-0-0 1:30:24.280	0,402	0,717	1,439	8,179	3,052	2,563	40,314	-11,887	-140,164				37,17															
03:18:36.632	COM8_115200	2000-0-0 1:30:24.300	0,394	0,731	1,442	8,545	2,136	2,991	40,309	-11,904	-140,081				37,20															
03:18:36.633	COM8_115200	2000-0-0 1:30:24.320	0,396	0,720	1,443	9,521	-1,343	3,540	40,320	-11,964	-140,026				37,14															
03:18:36.634	COM3_115200	2000-0-0 1:32:44.085	-0,296	0,662	1,279	9,094	-0,427	0,061	43,621	11,019	46,599				39,85															
03:18:36.635	COM3_115200	2000-0-0 1:32:44.105	-0,294	0,630	1,286	9,216	0,366	-0,854	43,599	11,030	46,599				39,82															
03:18:36.645	COM3_115200	2000-0-0 1:32:44.125	-0,299	0,605	1,287	10,864	-0,854	-0,610	43,599	11,052	46,582				39,92															
03:18:36.649	COM8_115200	2000-0-0 1:30:24.340	0,394	0,690	1,448	11,230	-2,808	4,150	40,358	-12,068	-139,999				37,17															
03:18:36.666	COM3_115200	2000-0-0 1:32:44.145	-0,287	0,624	1,280	11,536	-4,578	-0,793	43,605	11,030	46,522				39,79															
03:18:36.671	COM8_115200	2000-0-0 1:30:24.360	0,403	0,689	1,452	12,634	-2,197	4,272	40,430	-12,184	-139,971				37,17															
03:18:36.686	COM3_115200	2000-0-0 1:32:44.165	-0,303	0,622	1,283	11,780	-4,517	-1,953	43,616	10,981	46,434				39,92															
03:18:36.689	COM8_115200	2000-0-0 1:30:24.380	0,402	0,703	1,441	13,245	-1,648	3,906	40,507	-12,288	-139,933				37,17															
03:18:36.707	COM8_115200	2000-0-0 1:30:24.400	0,395	0,705	1,433	13,245	-3,601	4,333	40,594	-12,404	-139,900				37,23															
03:18:36.712	COM3_115200	2000-0-0 1:32:44.185	-0,311	0,622	1,292	12,329	-1,648	-2,258	43,638	10,981	46,373				39,85															
03:18:36.725	COM3_115200	2000-0-0 1:32:44.205	-0,313	0,610	1,280	13,672	-1,221	-2,686	43,676	11,008	46,313				39,82															
03:18:36.727	COM8_115200	2000-0-0 1:30:24.420	0,409	0,690	1,432	13,855	-3,601	6,165	40,688	-12,546	-139,867				37,33															
03:18:36.744	COM3_115200	2000-0-0 1:32:44.225	-0,311	0,616	1,280	14,343	-2,136	-3,052	43,737	11,036	46,252				39,85															
03:18:36.749	COM8_115200	2000-0-0 1:30:24.440	0,404	0,692	1,418	15,076	-1,099	6,287	40,787	-12,684	-139,796				37,30															
03:18:36.766	COM8_115200	2000-0-0 1:30:24.460	0,399	0,700	1,406	15,015	0,244	5,920	40,897	-12,783	-139,697				37,27															
03:18:36.773	COM3_115200	2000-0-0 1:32:44.245	-0,309	0,628	1,280	14,709	-2,747	-3,357	43,797	11,047	46,165				39,85															
03:18:36.785	COM3_115200	2000-0-0 1:32:44.265	-0,311	0,611	1,276	15,198	-0,305	-4,089	43,868	11,091	46,088				39,85															
03:18:36.793	COM8_115200	2000-0-0 1:30:24.480	0,399	0,710	1,411	14,587	0,305	5,981	40,995	-12,859	-139,603				37,27															
03:18:36.803	COM3_115200	2000-0-0 1:32:44.285	-0,327	0,597	1,278	16,052	3,723	-4,822	43,962	11,206	46,055				39,82															
03:18:36.814	COM8_115200	2000-0-0 1:30:24.500	0,418	0,695	1,407	14,832	-0,671	7,446	41,089	-12,969	-139,499				37,23															
03:18:36.824	COM3_115200	2000-0-0 1:32:44.305	-0,312	0,606	1,260	16,418	6,775	-4,944	44,072	11,371	46,066				39,73															
03:18:36.829	COM8_115200	2000-0-0 1:30:24.520	0,426	0,680	1,400	15,015	1,648	7,935	41,182	-13,085	-139,367				37,30															
03:18:36.846	COM8_115200	2000-0-0 1:30:24.540	0,406	0,698	1,391	15,198	3,601	6,592	41,276	-13,145	-139,208				37,30															
03:18:36.865	COM3_115200	2000-0-0 1:32:44.325	-0,300	0,610	1,253	16,785	3,784	-5,005	44,182	11,519	46,060				39,88															
03:18:36.869	COM3_115200	2000-0-0 1:32:44.345	-0,314	0,607	1,246	16,479	3,479	-5,249	44,291	11,651	46,033				39,79															
03:18:36.876	COM8_115200	2000-0-0 1:30:24.560	0,411	0,692	1,389	16,052	3,113	5,249	41,380	-13,173	-139,065				37,20															
03:18:36.876	COM8_115200	2000-0-0 1:30:24.580	0,413	0,669	1,393	16,846	1,221	4,761	41,506	-13,222	-138,966				37,23															
03:18:36.876	COM3_115200	2000-0-0 1:32:44.365	-0,307	0,580	1,238	17,090	5,920	-6,165	44,401	11,805	46,016				39,79															
03:18:36.896	COM3_115200	2000-0-0 1:32:44.385	-0,314	0,575	1,240	17,700	7,019	-6,348	44,533	12,003	46,033				39,79															
03:18:36.912	COM8_115200	2000-0-0 1:30:24.600	0,418	0,664	1,386	17,395	3,052	4,089	41,638	-13,266	-138,862				37,27															
03:18:36.912	COM8_115200	2000-0-0 1:30:24.620	0,414	0,660	1,370	16,296	4,761	3,479	41,754	-13,277	-138,746				37,20															
03:18:36.929	COM3_115200	2000-0-0 1:32:44.405	-0,308	0,573	1,243	17,883	2,991	-4,639	44,654	12,145	46,016				39,82															
03:18:36.944	COM3_115200	2000-0-0 1:32:44.425	-0,315	0,554	1,254	18,616	2,075	-4,761	44,780	12,250	45,983				39,92															
03:18:36.948	COM8_115200	2000-0-0 1:30:24.640	0,414	0,647	1,373	16,052	7,263	2,991	41,858	-13,233	-138,609				37,27															
03:18:36.988	COM8_115200	2000-0-0 1:30:24.660	0,434	0,628	1,377	16,357	7,813	3,845	41,957	-13,189	-138,450				37,33															
03:18:36.989	COM8_115200	2000-0-0 1:30:24.680	0,419	0,633	1,364	17,517	11,414	3,906	42,056	-13,118	-138,257				37,20															
03:18:36.993	COM3_115200	2000-0-0 1:32:44.445	-0,306	0,533	1,234	20,142	-1,648	-6,287	44,918	12,327	45,895				39,76															
03:18:36.993	COM3_115200	2000-0-0 1:32:44.465	-0,314	0,527	1,234	21,179	-3,235	-7,202	45,066	12,387	45,753				39,82															
03:18:37.028	COM8_115200	2000-0-0 1:30:24.700	0,415	0,650	1,360	17,029	14,465	3,845	42,149	-12,997	-138,010				37,14															
03:18:37.029	COM8_115200	2000-0-0 1:30:24.720	0,443	0,624	1,362	17,822	13,062	4,456	42,242	-12,870	-137,763				37,27															
03:18:37.030	COM3_115200	2000-0-0 1:32:44.485	-0,325	0,546	1,230	21,790	-3,357	-5,920	45,220	12,437	45,604				39,82															
03:18:37.043	COM3_115200	2000-0-0 1:32:44.505	-0,309	0,534	1,214	22,217	-2,319	-5,615	45,379	12,491	45,472				39,73															
03:18:37.044	COM3_115200	2000-0-0 1:32:44.525	-0,334	0,514	1,213	22,522	-3,357	-5,493	45,555	12,535	45,346				39,82															
03:18:37.048	COM8_115200	2000-0-0 1:30:24.740	0,440	0,631	1,359	18,005	16,479	3,906	42,336	-12,733	-137,494				37,30															
03:18:37.063	COM3_115200	2000-0-0 1:32:44.545	-0,340	0,548	1,198	23,132	-3,418	-4,211	45,731	12,568	45,214				39,82															
03:18:37.073	COM8_115200	2000-0-0 1:30:24.760	0,437	0,643	1,356	17,334	17,273	4,089	42,418	-12,574	-137,203				37,23															
03:18:37.086	COM3_115200	2000-0-0 1:32:44.565	-0,327	0,541	1,177	22,034	-1,587	-4,150	45,895	12,607	45,104				39,73															
03:18:37.089	COM8_115200	2000-0-0 1:30:24.780	0,449	0,656	1,355	16,968	15,686	2,930	42,495	-12,415	-136,923				37,20															
03:18:37.104	COM3_115200	2000-0-0 1:32:44.585	-0,317	0,530	1,189	21,790	-0,244	-5,493	46,049	12,673	45,011				39,73															
03:18:37.108	COM8_115200	2000-0-0 1:30:24.800	0,446	0,635	1,354	17,090	13,611	2,319	42,578	-12,277	-136,697				37,08															
03:18:37.123	COM3_115200	2000-0-0 1:32:44.605	-0,324	0,530	1,177	21,912	3,235	-4,211	46,214	12,788	44,967				39,88															
03:18:37.126	COM8_115200	2000-0-0 1:30:24.820	0,457	0,623	1,351	17,090	11,475	2,563	42,671	-12,178	-136,500				37,20															
03:18:37.147	COM8_115200	2000-0-0 1:30:24.840	0,462	0,630	1,359	16,663	11,230	2,869	42,759	-12,090	-136,313				37,14															
03:18:37.151	COM3_115200	2000-0-0 1:32:44.625	-0,326	0,509	1,143	21,057	5,005	-3,662	46,379	12,920	44,978				39,70															
03:18:37.164	COM3_115200	2000-0-0 1:32:44.645	-0,307	0,501	1,158	19,714	3,845	-2,502	46,527	13,035	45,005				39,79															
03:18:37.168	COM8_115200	2000-0-0 1:30:24.860	0,455	0,630	1,359	16,357	8,362	3,296	42,841	-12,041	-136,143				37,20															
03:18:37.183	COM3_115200	2000-0-0 1:32:44.665	-0,313	0,492	1,156	17,883	1,953	-2,563	46,626	13,118	45,005				39,73															
03:18:37.188	COM8_115200	2000-0-0 1:30:24.880	0,459	0,606	1,362	16,907	1,892	3,418	42,940	-12,079	-136,044				37,23															
03:18:37.203	COM3_115200	2000-0-0 1:32:44.685	-0,337	0,477	1,146	16,724	0,732	-3,357	46,686	13,178	44,967				39,82															
03:18:37.206	COM8_115200	2000-0-0 1:30:24.900	0,470	0,596	1,358	17,151	-0,854	3,235	43,061	-12,178	-136,011				37,30															
03:18:37.226	COM3_115200	2000-0-0 1:32:44.705	-0,325	0,479	1,151	14,832	-0,671	-3,601	46,714	13,239	44,918				39,66															
03:18:37.243	COM3_115200	2000-0-0 1:32:44.725	-0,314	0,475	1,149	14,587	-2,014	-2,930	46,708	13,266	44,841				39,79															
03:18:37.251	COM8_115200	2000-0-0 1:30:24.920	0,453	0,605	1,350	16,296	-1,221	3,235	43,165	-12,288	-135,989				37,27															
03:18:37.251	COM8_115200	2000-0-0 1:30:24.940	0,452	0,601	1,342	15,808	-5,371	4,578	43,264	-12,442	-135,983				37,17															
03:18:37.263	COM3_115200	2000-0-0 1:32:44.745	-0,329	0,449	1,165	14,771	-1,160	-2,380	46,708	13,304	44,780				39,88															
03:18:37.267	COM8_115200	2000-0-0 1:30:24.960	0,462	0,575	1,336	15,564	-7,385	5,920	43,358	-12,673	-136,011				37,14															
03:18:37.285	COM3_115200	2000-0-0 1:32:44.765	-0,320	0,440	1,176	15,686	-0,610	-1,953	46,719	13,337	44,742				39,85															
03:18:37.296	COM8_115200	2000-0-0 1:30:24.980	0,427	0,575	1,326	15,198	-4,822	6,409	43,434	-12,898	-136,011				37,23															
03:18:37.306	COM3_115200	2000-0-0 1:32:44.785	-0,326	0,422	1,168	17,090	0,061	-1,831	46,752	13,387	44,709				39,85															
03:18:37.317	COM8_115200	2000-0-0 1:30:25.000	0,431	0,572	1,325	14,954	-4,333	6,897	43,495	-13,096	-135,972				37,23															
03:18:37.377	COM3_115200	2000-0-0 1:32:44.805	-0,328	0,394	1,185	18,372	-2,380	-1,221	46,807	13,403	44,665				39,85															
03:18:37.391	COM8_115200	2000-0-0 1:30:25.020	0,456	0,559	1,328	15,015	-9,766	7,874	43,566	-13,354	-135,989				37,36															
03:18:37.392	COM8_115200	2000-0-0 1:30:25.040	0,461	0,567	1,317	14,893	-11,414	9,460	43,638	-13,683	-136,011				37,30															
03:18:37.394	COM8_115200	2000-0-0 1:30:25.060	0,456	0,565	1,308	14,160	-7,080	11,841	43,676	-14,002	-135,972				37,39															
03:18:37.396	COM8_115200	2000-0-0 1:30:25.080	0,455	0,557	1,311	13,794	-5,676	13,062	43,693	-14,299	-135,868				37,33															
03:18:37.404	COM3_115200	2000-0-0 1:32:44.825	-0,321	0,395	1,192	19,165	-2,197	-0,671	46,868	13,403	44,626				39,79															
03:18:37.409	COM3_115200	2000-0-0 1:32:44.845	-0,346	0,406	1,179	20,813	-5,554	-0,305	46,945	13,359	44,544				39,82															
03:18:37.411	COM3_115200	2000-0-0 1:32:44.865	-0,321	0,423	1,140	21,301	-6,042	0,183	47,027	13,293	44,451				39,82															
03:18:37.415	COM3_115200	2000-0-0 1:32:44.885	-0,326	0,426	1,154	21,484	-2,991	-1,099	47,126	13,266	44,374				39,79															
03:18:37.428	COM8_115200	2000-0-0 1:30:25.100	0,476	0,540	1,310	14,526	-3,967	12,817	43,704	-14,579	-135,742				37,36															
03:18:37.431	COM8_115200	2000-0-0 1:30:25.120	0,467	0,542	1,298	14,587	-1,343	11,414	43,720	-14,821	-135,604				37,27															
03:18:37.445	COM3_115200	2000-0-0 1:32:44.905	-0,363	0,444	1,150	21,057	-1,160	-1,343	47,225	13,271	44,319				39,82															
03:18:37.448	COM3_115200	2000-0-0 1:32:44.925	-0,332	0,441	1,134	21,179	-0,549	-2,808	47,318	13,321	44,275				39,85															
03:18:37.453	COM8_115200	2000-0-0 1:30:25.140	0,459	0,546	1,296	14,038	1,404	10,803	43,715	-14,991	-135,423				37,27															
03:18:37.471	COM3_115200	2000-0-0 1:32:44.945	-0,324	0,435	1,097	20,691	0,610	-4,150	47,411	13,387	44,214				39,76															
03:18:37.478	COM8_115200	2000-0-0 1:30:25.160	0,477	0,541	1,292	13,611	0,183	11,353	43,704	-15,161	-135,236				37,23															
03:18:37.483	COM3_115200	2000-0-0 1:32:44.965	-0,333	0,434	1,125	18,738	-1,648	-1,221	47,483	13,409	44,182				39,88															
03:18:37.498	COM8_115200	2000-0-0 1:30:25.180	0,480	0,521	1,294	14,832	-1,221	10,315	43,704	-15,353	-135,088				37,14															
03:18:37.506	COM8_115200	2000-0-0 1:30:25.200	0,457	0,514	1,298	16,479	0,427	8,423	43,742	-15,513	-134,951				37,27															
03:18:37.510	COM3_115200	2000-0-0 1:32:44.985	-0,321	0,410	1,131	19,165	-2,869	-1,770	47,527	13,436	44,110				39,82															
03:18:37.523	COM3_115200	2000-0-0 1:32:45.005	-0,342	0,374	1,140	19,836	-2,197	-3,723	47,582	13,464	44,039				39,88															
03:18:37.525	COM8_115200	2000-0-0 1:30:25.220	0,472	0,519	1,295	16,724	0,916	7,080	43,792	-15,639	-134,819				37,17															
03:18:37.543	COM3_115200	2000-0-0 1:32:45.025	-0,333	0,370	1,120	18,860	-2,991	-0,122	47,631	13,447	43,984				39,76															
03:18:37.552	COM8_115200	2000-0-0 1:30:25.240	0,484	0,511	1,295	16,663	2,075	6,409	43,841	-15,721	-134,714				37,17															
03:18:37.568	COM3_115200	2000-0-0 1:32:45.045	-0,352	0,379	1,154	18,799	-7,324	-1,404	47,637	13,425	43,868				39,92															
03:18:37.578	COM8_115200	2000-0-0 1:30:25.260	0,474	0,519	1,278	17,395	1,038	7,874	43,885	-15,837	-134,555				37,33															
03:18:37.583	COM3_115200	2000-0-0 1:32:45.065	-0,321	0,379	1,157	19,531	-5,249	-2,441	47,659	13,387	43,753				39,85															
03:18:37.633	COM8_115200	2000-0-0 1:30:25.280	0,475	0,507	1,278	17,639	0,000	9,216	43,945	-15,985	-134,412				37,20															
03:18:37.635	COM8_115200	2000-0-0 1:30:25.300	0,482	0,500	1,277	17,761	2,380	8,972	44,000	-16,122	-134,258				37,14															
03:18:37.637	COM8_115200	2000-0-0 1:30:25.320	0,480	0,501	1,263	17,212	4,028	8,911	44,033	-16,221	-134,061				37,20															
03:18:37.643	COM3_115200	2000-0-0 1:32:45.085	-0,356	0,355	1,114	20,447	-3,418	-1,465	47,708	13,370	43,665				39,82															
03:18:37.644	COM3_115200	2000-0-0 1:32:45.105	-0,354	0,364	1,131	20,325	-1,648	-1,831	47,758	13,403	43,610				39,85															
03:18:37.645	COM3_115200	2000-0-0 1:32:45.125	-0,330	0,364	1,136	20,996	-1,038	-2,808	47,818	13,436	43,566				39,79															
03:18:37.672	COM8_115200	2000-0-0 1:30:25.340	0,475	0,512	1,269	16,052	2,686	9,399	44,050	-16,337	-133,874				37,27															
03:18:37.677	COM8_115200	2000-0-0 1:30:25.360	0,473	0,479	1,271	16,235	1,831	9,644	44,061	-16,469	-133,698				37,30															
03:18:37.683	COM3_115200	2000-0-0 1:32:45.145	-0,332	0,347	1,128	21,729	1,770	-2,747	47,884	13,519	43,528				39,76															
03:18:37.687	COM3_115200	2000-0-0 1:32:45.165	-0,359	0,315	1,145	22,705	2,991	-2,930	47,977	13,634	43,533				39,82															
03:18:37.716	COM3_115200	2000-0-0 1:32:45.185	-0,332	0,325	1,131	23,987	1,038	-2,258	48,087	13,716	43,533				39,73															
03:18:37.720	COM8_115200	2000-0-0 1:30:25.380	0,477	0,452	1,277	17,395	2,869	9,827	44,077	-16,606	-133,517				37,23															
03:18:37.752	COM8_115200	2000-0-0 1:30:25.400	0,491	0,459	1,278	17,944	4,333	10,376	44,105	-16,721	-133,303				37,27															
03:18:37.758	COM8_115200	2000-0-0 1:30:25.420	0,492	0,462	1,272	18,616	4,822	9,766	44,132	-16,820	-133,077				37,20															
03:18:37.760	COM8_115200	2000-0-0 1:30:25.440	0,491	0,438	1,263	19,470	4,089	9,460	44,176	-16,924	-132,858				37,39															
03:18:37.767	COM3_115200	2000-0-0 1:32:45.205	-0,345	0,335	1,096	23,987	0,305	-2,502	48,197	13,788	43,500				39,79															
03:18:37.768	COM3_115200	2000-0-0 1:32:45.225	-0,343	0,316	1,116	23,438	-0,061	-3,479	48,290	13,865	43,467				39,88															
03:18:37.771	COM8_115200	2000-0-0 1:30:25.460	0,510	0,435	1,263	19,714	3,540	9,094	44,236	-17,034	-132,671				37,27															
03:18:37.773	COM3_115200	2000-0-0 1:32:45.245	-0,370	0,302	1,106	23,926	-0,610	-4,944	48,378	13,947	43,396				39,82															
03:18:37.785	COM3_115200	2000-0-0 1:32:45.265	-0,356	0,312	1,086	23,010	0,671	-3,418	48,461	14,057	43,347				39,79															
03:18:37.787	COM8_115200	2000-0-0 1:30:25.480	0,503	0,443	1,255	19,165	5,920	9,399	44,286	-17,100	-132,484				37,42															
03:18:37.802	COM3_115200	2000-0-0 1:32:45.285	-0,350	0,320	1,063	21,484	-2,625	-3,113	48,510	14,106	43,281				39,82															
03:18:37.808	COM8_115200	2000-0-0 1:30:25.500	0,528	0,448	1,248	19,165	5,066	10,071	44,308	-17,194	-132,231				37,20															
03:18:37.823	COM3_115200	2000-0-0 1:32:45.305	-0,350	0,309	1,072	20,081	-3,113	-3,357	48,521	14,139	43,193				39,70															
03:18:37.827	COM8_115200	2000-0-0 1:30:25.520	0,518	0,430	1,240	19,531	3,540	9,399	44,341	-17,298	-132,023				37,23															
03:18:37.843	COM3_115200	2000-0-0 1:32:45.325	-0,352	0,291	1,070	19,775	-1,770	-3,540	48,521	14,200	43,116				39,85															
03:18:37.847	COM8_115200	2000-0-0 1:30:25.540	0,508	0,433	1,245	19,165	1,953	9,216	44,396	-17,430	-131,852				37,20															
03:18:37.862	COM3_115200	2000-0-0 1:32:45.345	-0,359	0,270	1,075	18,311	-1,343	-3,662	48,499	14,271	43,044				39,70															
03:18:37.873	COM8_115200	2000-0-0 1:30:25.560	0,492	0,431	1,246	18,127	0,305	8,606	44,429	-17,578	-131,699				37,30															
03:18:37.882	COM3_115200	2000-0-0 1:32:45.365	-0,367	0,258	1,088	17,883	-3,235	-1,831	48,455	14,321	42,979				39,70															
03:18:37.899	COM8_115200	2000-0-0 1:30:25.580	0,514	0,413	1,245	17,700	-2,625	9,583	44,451	-17,759	-131,567				37,27															
03:18:37.903	COM3_115200	2000-0-0 1:32:45.385	-0,324	0,266	1,090	17,700	-2,380	-3,113	48,400	14,365	42,907				39,85															
03:18:37.907	COM8_115200	2000-0-0 1:30:25.600	0,520	0,384	1,232	16,479	-0,732	8,911	44,456	-17,952	-131,457				37,14															
03:18:37.923	COM3_115200	2000-0-0 1:32:45.405	-0,347	0,242	1,098	18,127	-4,211	-2,075	48,345	14,370	42,814				39,88															
03:18:37.932	COM8_115200	2000-0-0 1:30:25.620	0,510	0,390	1,247	15,503	1,404	10,315	44,440	-18,111	-131,331				37,17															
03:18:37.956	COM3_115200	2000-0-0 1:32:45.425	-0,356	0,238	1,113	19,104	-2,686	-2,258	48,296	14,398	42,748				39,79															
03:18:37.961	COM8_115200	2000-0-0 1:30:25.640	0,509	0,393	1,248	14,587	2,441	10,803	44,374	-18,270	-131,116				37,17															
03:18:37.966	COM8_115200	2000-0-0 1:30:25.660	0,532	0,371	1,247	14,160	5,737	11,841	44,275	-18,397	-130,869				37,27															
03:18:37.974	COM3_115200	2000-0-0 1:32:45.445	-0,344	0,233	1,064	18,799	-3,906	-2,136	48,246	14,425	42,660				39,79															
03:18:37.982	COM3_115200	2000-0-0 1:32:45.465	-0,354	0,220	1,091	18,555	-5,920	-2,502	48,192	14,425	42,567				39,92															
03:18:37.993	COM8_115200	2000-0-0 1:30:25.680	0,519	0,388	1,247	14,526	4,944	10,803	44,176	-18,512	-130,616				37,23															
03:18:37.995	COM3_115200	2000-0-0 1:32:45.485	-0,369	0,226	1,108	19,287	-6,653	-2,075	48,126	14,409	42,440				39,73															
03:18:37.995	COM8_115200	2000-0-0 1:30:25.700	0,530	0,381	1,233	14,404	3,784	11,536	44,077	-18,638	-130,369				37,23															
03:18:38.011	COM3_115200	2000-0-0 1:32:45.505	-0,369	0,235	1,095	19,470	-5,737	-3,723	48,065	14,403	42,303				39,82															
03:18:38.028	COM8_115200	2000-0-0 1:30:25.720	0,523	0,374	1,231	13,672	3,723	11,414	43,973	-18,787	-130,133				37,17															
03:18:38.045	COM3_115200	2000-0-0 1:32:45.525	-0,373	0,225	1,058	18,555	-4,883	-2,625	47,999	14,414	42,182				39,85															
03:18:38.071	COM8_115200	2000-0-0 1:30:25.740	0,533	0,364	1,227	13,367	4,028	11,902	43,857	-18,929	-129,886				37,17															
03:18:38.073	COM8_115200	2000-0-0 1:30:25.760	0,531	0,355	1,224	13,733	2,136	10,925	43,748	-19,078	-129,661				37,36															
03:18:38.109	COM8_115200	2000-0-0 1:30:25.780	0,532	0,348	1,218	14,343	1,831	10,986	43,654	-19,243	-129,457				37,17															
03:18:38.111	COM8_115200	2000-0-0 1:30:25.800	0,536	0,350	1,224	13,977	4,333	10,742	43,550	-19,369	-129,238				37,23															
03:18:38.114	COM3_115200	2000-0-0 1:32:45.545	-0,379	0,229	1,076	18,005	-4,211	-4,272	47,917	14,447	42,072				39,92															
03:18:38.116	COM3_115200	2000-0-0 1:32:45.565	-0,367	0,229	1,074	18,188	-4,150	-4,211	47,834	14,496	41,957				39,85															
03:18:38.117	COM3_115200	2000-0-0 1:32:45.585	-0,371	0,197	1,051	17,822	-4,578	-1,221	47,758	14,502	41,863				39,88															
03:18:38.124	COM3_115200	2000-0-0 1:32:45.605	-0,352	0,208	1,076	17,395	-4,211	0,061	47,675	14,502	41,803				39,88															
03:18:38.128	COM8_115200	2000-0-0 1:30:25.820	0,546	0,349	1,226	13,000	2,319	7,751	43,434	-19,490	-129,034				37,17															
03:18:38.140	COM3_115200	2000-0-0 1:32:45.625	-0,374	0,195	1,075	17,212	-2,136	0,732	47,587	14,507	41,765				39,82															
03:18:38.169	COM8_115200	2000-0-0 1:30:25.840	0,539	0,327	1,225	14,465	1,892	10,437	43,341	-19,622	-128,853				37,17															
03:18:38.171	COM8_115200	2000-0-0 1:30:25.860	0,544	0,329	1,220	14,038	0,610	10,254	43,248	-19,786	-128,672				37,17															
03:18:38.174	COM3_115200	2000-0-0 1:32:45.645	-0,373	0,169	1,080	17,029	-2,991	0,549	47,494	14,507	41,754				39,82															
03:18:38.189	COM8_115200	2000-0-0 1:30:25.880	0,560	0,325	1,224	13,367	-1,709	10,986	43,143	-19,984	-128,502				37,20															
03:18:38.194	COM3_115200	2000-0-0 1:32:45.665	-0,377	0,167	1,070	16,357	-2,380	-0,549	47,390	14,524	41,726				39,73															
03:18:38.205	COM8_115200	2000-0-0 1:30:25.900	0,553	0,311	1,225	13,062	-1,770	11,230	43,033	-20,198	-128,342				37,17															
03:18:38.207	COM3_115200	2000-0-0 1:32:45.685	-0,374	0,178	1,090	16,541	-4,272	-2,136	47,269	14,551	41,671				39,82															
03:18:38.222	COM3_115200	2000-0-0 1:32:45.705	-0,361	0,166	1,067	16,663	-6,104	-1,282	47,142	14,540	41,578				39,88															
03:18:38.228	COM8_115200	2000-0-0 1:30:25.920	0,542	0,308	1,219	12,451	1,831	11,780	42,902	-20,391	-128,145				37,30															
03:18:38.264	COM8_115200	2000-0-0 1:30:25.940	0,550	0,310	1,219	12,390	1,343	11,353	42,748	-20,550	-127,919				37,14															
03:18:38.266	COM8_115200	2000-0-0 1:30:25.960	0,555	0,305	1,217	12,268	-1,221	9,766	42,610	-20,731	-127,749				37,23															
03:18:38.271	COM3_115200	2000-0-0 1:32:45.725	-0,373	0,163	1,068	16,602	-4,150	-0,183	47,021	14,529	41,512				39,88															
03:18:38.272	COM3_115200	2000-0-0 1:32:45.745	-0,385	0,171	1,054	15,991	-2,380	-0,732	46,901	14,535	41,473				39,70															
03:18:38.281	COM3_115200	2000-0-0 1:32:45.765	-0,362	0,163	1,083	15,747	0,305	-2,625	46,774	14,606	41,462				39,85															
03:18:38.289	COM8_115200	2000-0-0 1:30:25.980	0,546	0,299	1,221	12,573	-1,892	9,644	42,490	-20,918	-127,606				37,14															
03:18:38.304	COM3_115200	2000-0-0 1:32:45.785	-0,381	0,146	1,072	16,541	-0,183	-3,845	46,648	14,705	41,424				39,82															
03:18:38.308	COM8_115200	2000-0-0 1:30:26.000	0,562	0,284	1,217	11,780	-1,831	9,033	42,358	-21,110	-127,480				37,17															
03:18:38.321	COM3_115200	2000-0-0 1:32:45.805	-0,377	0,150	1,070	16,418	-1,221	-3,052	46,527	14,788	41,375				39,88															
03:18:38.335	COM8_115200	2000-0-0 1:30:26.020	0,572	0,279	1,200	10,376	0,671	8,484	42,204	-21,270	-127,326				37,17															
03:18:38.343	COM3_115200	2000-0-0 1:32:45.825	-0,381	0,157	1,057	14,893	-2,319	-1,953	46,384	14,837	41,331				39,76															
03:18:38.354	COM8_115200	2000-0-0 1:30:26.040	0,563	0,279	1,223	12,451	1,526	7,507	42,056	-21,385	-127,161				37,33															
03:18:38.364	COM3_115200	2000-0-0 1:32:45.845	-0,393	0,154	1,060	14,160	-3,296	-2,808	46,214	14,886	41,270				39,79															
03:18:38.368	COM8_115200	2000-0-0 1:30:26.060	0,561	0,281	1,219	11,963	2,563	6,592	41,913	-21,473	-127,007				37,17															
03:18:38.379	COM3_115200	2000-0-0 1:32:45.865	-0,384	0,139	1,064	13,855	-2,747	-3,845	46,038	14,952	41,199				39,85															
03:18:38.393	COM8_115200	2000-0-0 1:30:26.080	0,572	0,268	1,221	11,963	1,648	5,798	41,776	-21,555	-126,870				37,36															
03:18:38.408	COM3_115200	2000-0-0 1:32:45.885	-0,372	0,134	1,056	13,184	-5,188	-3,784	45,840	14,996	41,100				39,73															
03:18:38.413	COM8_115200	2000-0-0 1:30:26.100	0,572	0,259	1,212	12,268	4,028	5,188	41,638	-21,616	-126,722				37,46															
03:18:38.426	COM8_115200	2000-0-0 1:30:26.120	0,555	0,263	1,205	12,756	5,981	4,150	41,495	-21,627	-126,552				37,20															
03:18:38.428	COM3_115200	2000-0-0 1:32:45.905	-0,381	0,146	1,047	12,085	-7,385	-2,747	45,610	14,996	40,968				39,92															
03:18:38.451	COM8_115200	2000-0-0 1:30:26.140	0,569	0,265	1,217	12,451	6,775	1,648	41,364	-21,605	-126,398				37,23															
03:18:38.454	COM3_115200	2000-0-0 1:32:45.925	-0,393	0,125	1,042	10,864	-6,104	-1,465	45,368	14,991	40,858				39,79															
03:18:38.484	COM8_115200	2000-0-0 1:30:26.160	0,558	0,258	1,197	12,512	4,333	2,808	41,243	-21,594	-126,277				37,20															
03:18:38.485	COM8_115200	2000-0-0 1:30:26.180	0,552	0,236	1,201	13,489	3,052	1,831	41,149	-21,610	-126,194				37,17															
03:18:38.486	COM3_115200	2000-0-0 1:32:45.945	-0,374	0,123	1,041	9,644	-7,019	-1,709	45,104	14,969	40,759				39,79															
03:18:38.488	COM3_115200	2000-0-0 1:32:45.965	-0,370	0,104	1,064	7,813	-6,531	-3,296	44,802	14,958	40,633				39,76															
03:18:38.499	COM3_115200	2000-0-0 1:32:45.985	-0,389	0,091	1,091	7,507	-7,080	-4,456	44,473	14,958	40,490				39,92															
03:18:38.519	COM8_115200	2000-0-0 1:30:26.200	0,537	0,239	1,208	13,184	0,854	1,648	41,067	-21,654	-126,145				37,30															
03:18:38.526	COM8_115200	2000-0-0 1:30:26.220	0,527	0,221	1,219	11,902	1,770	2,869	40,957	-21,709	-126,079				37,33															
03:18:38.529	COM3_115200	2000-0-0 1:32:46.005	-0,401	0,073	1,114	8,850	-3,479	-3,601	44,171	15,007	40,391				39,92															
03:18:38.545	COM8_115200	2000-0-0 1:30:26.240	0,568	0,211	1,222	11,658	4,883	5,310	40,798	-21,736	-125,942				37,27															
03:18:38.552	COM3_115200	2000-0-0 1:32:46.025	-0,392	0,060	1,099	10,071	-5,432	-4,333	43,896	15,046	40,298				39,85															
03:18:38.561	COM3_115200	2000-0-0 1:32:46.045	-0,377	0,084	1,113	10,010	-6,409	-5,798	43,616	15,084	40,161				39,82															
03:18:38.570	COM8_115200	2000-0-0 1:30:26.260	0,556	0,233	1,216	11,963	6,714	5,554	40,627	-21,747	-125,750				37,27															
03:18:38.584	COM3_115200	2000-0-0 1:32:46.065	-0,397	0,091	1,090	11,230	-2,686	-5,005	43,347	15,150	40,034				39,85															
03:18:38.589	COM8_115200	2000-0-0 1:30:26.280	0,558	0,229	1,206	11,536	5,737	5,310	40,446	-21,758	-125,546				37,20															
03:18:38.600	COM3_115200	2000-0-0 1:32:46.085	-0,399	0,059	1,089	12,939	-2,136	-5,310	43,121	15,238	39,946				39,88															
03:18:38.604	COM8_115200	2000-0-0 1:30:26.300	0,565	0,221	1,210	11,963	5,981	6,409	40,270	-21,780	-125,359				37,23															
03:18:38.619	COM3_115200	2000-0-0 1:32:46.105	-0,400	0,071	1,079	13,855	-4,150	-5,554	42,913	15,315	39,831				39,88															
03:18:38.628	COM8_115200	2000-0-0 1:30:26.320	0,581	0,230	1,211	12,451	1,099	7,263	40,122	-21,863	-125,189				37,20															
03:18:38.643	COM3_115200	2000-0-0 1:32:46.125	-0,429	0,087	1,059	13,306	-3,967	-5,127	42,704	15,375	39,705				39,76															
03:18:38.647	COM8_115200	2000-0-0 1:30:26.340	0,576	0,233	1,200	13,306	3,357	6,165	39,990	-21,934	-125,046				37,27															
03:18:38.665	COM3_115200	2000-0-0 1:32:46.145	-0,397	0,077	1,073	13,489	-4,150	-4,517	42,495	15,441	39,606				39,79															
03:18:38.677	COM8_115200	2000-0-0 1:30:26.360	0,570	0,224	1,200	12,390	4,578	5,798	39,842	-21,984	-124,882				37,20															
03:18:38.681	COM3_115200	2000-0-0 1:32:46.165	-0,407	0,063	1,070	13,855	-2,625	-3,296	42,297	15,491	39,512				39,79															
03:18:38.685	COM8_115200	2000-0-0 1:30:26.380	0,583	0,208	1,211	11,597	3,906	5,676	39,683	-22,028	-124,717				37,23															
03:18:38.700	COM3_115200	2000-0-0 1:32:46.185	-0,413	0,060	1,078	14,099	-1,770	-2,747	42,116	15,557	39,463				39,85															
03:18:38.711	COM8_115200	2000-0-0 1:30:26.400	0,564	0,201	1,211	12,024	4,333	5,005	39,523	-22,072	-124,563				37,14															
03:18:38.722	COM3_115200	2000-0-0 1:32:46.205	-0,394	0,051	1,092	15,015	-2,991	-2,747	41,946	15,606	39,408				39,76															
03:18:38.726	COM8_115200	2000-0-0 1:30:26.420	0,544	0,192	1,220	11,902	6,409	5,249	39,359	-22,083	-124,387				37,23															
03:18:38.740	COM3_115200	2000-0-0 1:32:46.225	-0,404	0,037	1,081	15,625	-4,089	-1,221	41,786	15,623	39,342				39,92															
03:18:38.752	COM8_115200	2000-0-0 1:30:26.440	0,585	0,174	1,235	12,024	4,944	6,653	39,183	-22,099	-124,200				37,20															
03:18:38.760	COM3_115200	2000-0-0 1:32:46.245	-0,396	0,038	1,097	15,808	-5,432	-2,075	41,627	15,623	39,271				39,92															
03:18:38.774	COM8_115200	2000-0-0 1:30:26.460	0,584	0,170	1,236	12,817	3,723	6,958	39,023	-22,159	-124,025				37,20															
03:18:38.784	COM3_115200	2000-0-0 1:32:46.265	-0,404	0,037	1,096	16,296	-6,104	-2,563	41,473	15,617	39,172				39,85															
03:18:38.788	COM8_115200	2000-0-0 1:30:26.480	0,585	0,182	1,227	12,573	6,836	7,324	38,853	-22,198	-123,816				37,20															
03:18:38.838	COM8_115200	2000-0-0 1:30:26.500	0,578	0,172	1,225	12,146	9,766	8,179	38,655	-22,187	-123,569				37,20															
03:18:38.839	COM8_115200	2000-0-0 1:30:26.520	0,606	0,186	1,217	11,902	9,766	8,545	38,447	-22,176	-123,278				37,17															
03:18:38.843	COM3_115200	2000-0-0 1:32:46.285	-0,425	0,026	1,090	16,602	-5,493	-2,747	41,314	15,617	39,067				39,88															
03:18:38.844	COM3_115200	2000-0-0 1:32:46.305	-0,439	0,016	1,065	16,052	-4,761	-2,869	41,155	15,628	38,979				39,85															
03:18:38.850	COM8_115200	2000-0-0 1:30:26.540	0,599	0,184	1,207	12,390	6,287	9,033	38,249	-22,198	-123,036				37,33															
03:18:38.850	COM3_115200	2000-0-0 1:32:46.325	-0,422	0,038	1,065	15,320	-6,104	-5,676	40,979	15,672	38,853				39,82															
03:18:38.866	COM3_115200	2000-0-0 1:32:46.345	-0,402	0,013	1,065	14,771	-3,845	-4,211	40,798	15,716	38,749				39,79															
03:18:38.869	COM8_115200	2000-0-0 1:30:26.560	0,587	0,176	1,205	12,329	3,479	8,423	38,073	-22,275	-122,811				37,23															
03:18:38.904	COM8_115200	2000-0-0 1:30:26.580	0,595	0,162	1,209	11,719	4,028	8,606	37,897	-22,363	-122,607				37,20															
03:18:38.905	COM8_115200	2000-0-0 1:30:26.600	0,595	0,160	1,214	11,475	5,127	9,399	37,700	-22,429	-122,388				37,27															
03:18:38.909	COM3_115200	2000-0-0 1:32:46.365	-0,451	0,022	1,074	15,686	-2,991	-2,747	40,627	15,760	38,655				39,88															
03:18:38.911	COM3_115200	2000-0-0 1:32:46.385	-0,427	0,014	1,083	15,625	-2,869	0,549	40,474	15,798	38,633				39,92															
03:18:38.921	COM3_115200	2000-0-0 1:32:46.405	-0,407	0,020	1,075	14,832	-4,028	-0,366	40,303	15,837	38,578				39,79															
03:18:38.929	COM8_115200	2000-0-0 1:30:26.620	0,596	0,140	1,222	11,414	5,920	9,216	37,491	-22,495	-122,151				37,14															
03:18:38.944	COM3_115200	2000-0-0 1:32:46.425	-0,407	-0,002	1,080	13,916	-2,930	-1,160	40,111	15,875	38,518				39,82															
03:18:38.948	COM8_115200	2000-0-0 1:30:26.640	0,584	0,131	1,229	12,146	6,470	9,216	37,293	-22,544	-121,904				37,23															
03:18:38.962	COM3_115200	2000-0-0 1:32:46.445	-0,416	-0,027	1,094	14,099	-2,991	-3,845	39,913	15,936	38,458				39,85															
03:18:38.967	COM8_115200	2000-0-0 1:30:26.660	0,593	0,124	1,230	12,756	6,958	9,094	37,101	-22,582	-121,657				37,20															
03:18:38.996	COM8_115200	2000-0-0 1:30:26.680	0,601	0,130	1,235	12,024	4,944	9,705	36,909	-22,654	-121,421				37,17															
03:18:38.999	COM3_115200	2000-0-0 1:32:46.465	-0,424	-0,033	1,120	15,137	-2,930	-4,883	39,727	15,996	38,392				39,76															
03:18:39.001	COM3_115200	2000-0-0 1:32:46.485	-0,425	-0,033	1,095	14,709	-4,883	-2,930	39,534	16,013	38,315				39,82															
03:18:39.007	COM8_115200	2000-0-0 1:30:26.700	0,618	0,118	1,234	12,146	4,578	9,888	36,711	-22,736	-121,185				37,23															
03:18:39.019	COM3_115200	2000-0-0 1:32:46.505	-0,424	-0,016	1,088	14,404	-5,920	-4,028	39,326	16,035	38,194				39,85															
03:18:39.034	COM8_115200	2000-0-0 1:30:26.720	0,605	0,115	1,212	12,756	6,836	10,315	36,508	-22,791	-120,938				37,30															
03:18:39.039	COM3_115200	2000-0-0 1:32:46.525	-0,437	-0,033	1,074	14,648	-2,625	-3,479	39,128	16,078	38,101				39,92															
03:18:39.054	COM8_115200	2000-0-0 1:30:26.740	0,608	0,123	1,204	12,451	7,935	10,986	36,299	-22,835	-120,646				37,14															
03:18:39.058	COM3_115200	2000-0-0 1:32:46.545	-0,433	-0,038	1,092	14,954	-1,587	-3,906	38,936	16,161	38,046				39,76															
03:18:39.066	COM8_115200	2000-0-0 1:30:26.760	0,615	0,121	1,212	12,024	2,930	10,315	36,096	-22,928	-120,399				37,17															
03:18:39.080	COM3_115200	2000-0-0 1:32:46.565	-0,430	-0,043	1,098	15,564	-0,610	-5,066	38,754	16,265	37,980				39,85															
03:18:39.088	COM8_115200	2000-0-0 1:30:26.780	0,611	0,095	1,210	12,634	3,418	10,498	35,909	-23,038	-120,179				37,27															
03:18:39.098	COM3_115200	2000-0-0 1:32:46.585	-0,438	-0,047	1,108	16,113	-1,038	-3,784	38,589	16,370	37,919				39,88															
03:18:39.098	COM8_115200	2000-0-0 1:30:26.800	0,603	0,094	1,216	12,695	4,822	10,620	35,722	-23,132	-119,932				37,30															
03:18:39.118	COM3_115200	2000-0-0 1:32:46.605	-0,427	-0,048	1,092	16,602	-1,343	-2,930	38,430	16,452	37,859				39,79															
03:18:39.127	COM8_115200	2000-0-0 1:30:26.820	0,602	0,093	1,226	12,390	7,019	10,864	35,508	-23,198	-119,663				37,27															
03:18:39.142	COM3_115200	2000-0-0 1:32:46.625	-0,417	-0,059	1,096	16,663	-2,502	-2,625	38,271	16,512	37,804				39,82															
03:18:39.147	COM8_115200	2000-0-0 1:30:26.840	0,604	0,078	1,237	13,245	5,920	10,132	35,310	-23,247	-119,399				37,23															
03:18:39.159	COM3_115200	2000-0-0 1:32:46.645	-0,431	-0,067	1,104	16,968	-0,122	-5,005	38,112	16,600	37,738				39,82															
03:18:39.203	COM8_115200	2000-0-0 1:30:26.860	0,596	0,063	1,240	13,611	4,395	10,071	35,134	-23,329	-119,158				37,27															
03:18:39.205	COM8_115200	2000-0-0 1:30:26.880	0,598	0,061	1,240	14,648	5,066	13,306	34,958	-23,417	-118,883				37,27															
03:18:39.206	COM8_115200	2000-0-0 1:30:26.900	0,600	0,063	1,235	14,038	4,456	14,526	34,761	-23,544	-118,564				37,30															
03:18:39.211	COM3_115200	2000-0-0 1:32:46.665	-0,427	-0,090	1,125	18,311	-1,282	-6,775	37,969	16,710	37,656				39,76															
03:18:39.212	COM3_115200	2000-0-0 1:32:46.685	-0,417	-0,095	1,132	19,348	-1,953	-7,568	37,837	16,826	37,546				39,92															
03:18:39.219	COM3_115200	2000-0-0 1:32:46.705	-0,434	-0,091	1,131	20,264	0,549	-9,033	37,716	16,968	37,419				39,88															
03:18:39.226	COM8_115200	2000-0-0 1:30:26.920	0,646	0,048	1,234	15,320	6,653	15,381	34,552	-23,648	-118,218				37,27															
03:18:39.238	COM3_115200	2000-0-0 1:32:46.725	-0,439	-0,091	1,103	21,301	0,427	-8,911	37,623	17,133	37,293				39,82															
03:18:39.253	COM8_115200	2000-0-0 1:30:26.940	0,622	0,061	1,220	15,320	8,606	15,381	34,349	-23,736	-117,839				37,17															
03:18:39.267	COM3_115200	2000-0-0 1:32:46.745	-0,435	-0,088	1,068	21,545	3,296	-8,728	37,540	17,314	37,189				39,79															
03:18:39.277	COM8_115200	2000-0-0 1:30:26.960	0,635	0,067	1,217	14,832	9,155	15,442	34,124	-23,780	-117,438				37,27															
03:18:39.278	COM3_115200	2000-0-0 1:32:46.765	-0,417	-0,086	1,050	20,386	3,784	-8,484	37,452	17,523	37,106				39,73															
03:18:39.285	COM8_115200	2000-0-0 1:30:26.980	0,654	0,061	1,213	15,625	1,282	14,587	33,937	-23,912	-117,109				37,33															
03:18:39.298	COM3_115200	2000-0-0 1:32:46.785	-0,430	-0,110	1,040	18,188	4,272	-6,226	37,321	17,737	37,029				39,85															
03:18:39.313	COM8_115200	2000-0-0 1:30:27.000	0,647	0,027	1,222	16,846	-2,869	13,000	33,816	-24,120	-116,889				37,11															
03:18:39.327	COM3_115200	2000-0-0 1:32:46.805	-0,430	-0,108	1,048	17,090	2,441	-4,883	37,161	17,913	36,969				39,85															
03:18:39.333	COM8_115200	2000-0-0 1:30:27.020	0,641	0,016	1,227	17,029	-3,357	12,146	33,717	-24,346	-116,697				37,27															
03:18:39.338	COM3_115200	2000-0-0 1:32:46.825	-0,405	-0,130	1,080	16,357	1,892	-5,493	36,985	18,062	36,914				39,79															
03:18:39.346	COM8_115200	2000-0-0 1:30:27.040	0,630	0,000	1,233	15,381	-3,418	11,169	33,602	-24,576	-116,526				37,27															
03:18:39.359	COM3_115200	2000-0-0 1:32:46.845	-0,403	-0,159	1,100	15,625	1,709	-4,089	36,793	18,188	36,870				39,88															
03:18:39.374	COM8_115200	2000-0-0 1:30:27.060	0,632	-0,013	1,232	13,550	0,305	11,047	33,437	-24,747	-116,329				37,20															
03:18:39.385	COM8_115200	2000-0-0 1:30:27.080	0,656	-0,010	1,234	11,963	3,784	11,536	33,212	-24,862	-116,082				37,23															
03:18:39.396	COM3_115200	2000-0-0 1:32:46.865	-0,407	-0,162	1,108	15,198	1,587	-3,235	36,595	18,292	36,837				39,70															
03:18:39.398	COM3_115200	2000-0-0 1:32:46.885	-0,429	-0,161	1,099	15,015	1,953	-3,357	36,387	18,386	36,815				39,82															
03:18:39.407	COM8_115200	2000-0-0 1:30:27.100	0,650	-0,015	1,223	10,864	7,080	11,353	32,943	-24,917	-115,790				37,23															
03:18:39.422	COM3_115200	2000-0-0 1:32:46.905	-0,421	-0,147	1,083	13,794	0,000	-3,601	36,161	18,468	36,771				39,82															
03:18:39.426	COM8_115200	2000-0-0 1:30:27.120	0,627	-0,009	1,221	10,010	7,568	10,864	32,651	-24,944	-115,488				37,20															
03:18:39.438	COM3_115200	2000-0-0 1:32:46.925	-0,428	-0,160	1,088	13,245	0,671	-3,723	35,909	18,550	36,716				39,82															
03:18:39.452	COM8_115200	2000-0-0 1:30:27.140	0,638	-0,021	1,229	9,216	4,883	10,437	32,355	-24,988	-115,225				37,17															
03:18:39.465	COM3_115200	2000-0-0 1:32:46.945	-0,427	-0,159	1,085	13,306	0,854	-4,395	35,651	18,638	36,656				39,82															
03:18:39.472	COM8_115200	2000-0-0 1:30:27.160	0,632	-0,038	1,230	8,850	3,967	10,254	32,058	-25,054	-114,977				37,23															
03:18:39.482	COM3_115200	2000-0-0 1:32:46.965	-0,434	-0,150	1,064	12,451	-0,244	-4,456	35,381	18,726	36,573				39,76															
03:18:39.507	COM8_115200	2000-0-0 1:30:27.180	0,663	-0,040	1,223	8,850	5,493	8,789	31,767	-25,109	-114,730				37,17															
03:18:39.508	COM8_115200	2000-0-0 1:30:27.200	0,669	-0,015	1,230	8,972	5,310	7,751	31,487	-25,137	-114,527				37,33															
03:18:39.513	COM3_115200	2000-0-0 1:32:46.985	-0,436	-0,148	1,065	10,742	1,099	-5,432	35,085	18,820	36,502				39,76															
03:18:39.544	COM8_115200	2000-0-0 1:30:27.220	0,622	-0,021	1,227	7,996	2,197	6,409	31,212	-25,159	-114,373				37,30															
03:18:39.545	COM8_115200	2000-0-0 1:30:27.240	0,648	-0,042	1,229	7,080	-0,854	7,263	30,932	-25,258	-114,225				37,17															
03:18:39.545	COM3_115200	2000-0-0 1:32:47.005	-0,429	-0,156	1,064	9,521	2,441	-4,395	34,772	18,935	36,447				39,92															
03:18:39.545	COM3_115200	2000-0-0 1:32:47.025	-0,407	-0,170	1,080	9,094	1,709	-5,249	34,442	19,061	36,387				39,98															
03:18:39.578	COM8_115200	2000-0-0 1:30:27.260	0,633	-0,052	1,244	6,531	-1,282	6,653	30,641	-25,378	-114,109				37,17															
03:18:39.578	COM3_115200	2000-0-0 1:32:47.045	-0,389	-0,187	1,093	8,423	1,526	-5,005	34,102	19,166	36,315				39,73															
03:18:39.578	COM3_115200	2000-0-0 1:32:47.065	-0,382	-0,195	1,099	8,301	1,160	-3,235	33,755	19,254	36,260				39,82															
03:18:39.607	COM8_115200	2000-0-0 1:30:27.280	0,634	-0,070	1,256	6,348	0,305	7,202	30,344	-25,483	-113,967				37,27															
03:18:39.607	COM8_115200	2000-0-0 1:30:27.300	0,647	-0,069	1,267	6,348	2,808	8,118	30,031	-25,560	-113,796				37,30															
03:18:39.609	COM3_115200	2000-0-0 1:32:47.085	-0,381	-0,207	1,123	8,972	1,221	-4,089	33,415	19,347	36,205				39,95															
03:18:39.622	COM3_115200	2000-0-0 1:32:47.105	-0,381	-0,216	1,120	9,277	0,061	-3,845	33,085	19,407	36,145				39,85															
03:18:39.627	COM8_115200	2000-0-0 1:30:27.320	0,622	-0,061	1,275	6,165	4,822	7,690	29,696	-25,593	-113,599				37,20															
03:18:39.637	COM3_115200	2000-0-0 1:32:47.125	-0,417	-0,208	1,098	9,583	-1,831	-3,601	32,750	19,440	36,052				39,85															
03:18:39.646	COM8_115200	2000-0-0 1:30:27.340	0,646	-0,078	1,268	6,653	7,080	8,301	29,350	-25,576	-113,357				37,27															
03:18:39.661	COM3_115200	2000-0-0 1:32:47.145	-0,419	-0,213	1,089	9,705	-1,160	-1,892	32,432	19,468	35,975				39,82															
03:18:39.669	COM8_115200	2000-0-0 1:30:27.360	0,672	-0,073	1,258	7,629	6,897	8,301	29,020	-25,554	-113,110				37,30															
03:18:39.681	COM3_115200	2000-0-0 1:32:47.165	-0,447	-0,183	1,051	8,179	-3,235	-1,770	32,091	19,462	35,892				39,79															
03:18:39.686	COM8_115200	2000-0-0 1:30:27.380	0,666	-0,048	1,229	8,118	5,432	8,240	28,707	-25,543	-112,874				37,27															
03:18:39.701	COM3_115200	2000-0-0 1:32:47.185	-0,423	-0,179	1,041	7,202	-1,648	-3,235	31,729	19,457	35,821				39,88															
03:18:39.706	COM8_115200	2000-0-0 1:30:27.400	0,642	-0,051	1,232	7,813	-0,549	6,409	28,438	-25,609	-112,720				37,30															
03:18:39.720	COM3_115200	2000-0-0 1:32:47.205	-0,421	-0,192	1,051	6,165	-5,371	-3,479	31,333	19,440	35,700				39,85															
03:18:39.729	COM8_115200	2000-0-0 1:30:27.420	0,673	-0,081	1,241	7,507	-5,859	6,592	28,191	-25,763	-112,632				37,30															
03:18:39.745	COM3_115200	2000-0-0 1:32:47.225	-0,371	-0,214	1,021	5,066	-5,676	-2,319	30,932	19,407	35,585				39,85															
03:18:39.748	COM8_115200	2000-0-0 1:30:27.440	0,681	-0,196	1,212	7,141	-17,700	3,601	27,955	-26,043	-112,637				37,17															
03:18:39.758	COM3_115200	2000-0-0 1:32:47.245	-0,676	-0,211	1,132	5,127	5,188	-5,493	30,520	19,490	35,497				39,88															
03:18:39.767	COM8_115200	2000-0-0 1:30:27.460	0,831	-0,101	1,275	4,700	-12,512	5,554	27,708	-26,417	-112,681				37,27															
03:18:39.782	COM3_115200	2000-0-0 1:32:47.265	-0,347	-0,116	1,229	10,498	-5,066	5,737	30,179	19,528	35,480				39,85															
03:18:39.786	COM8_115200	2000-0-0 1:30:27.480	0,665	0,080	1,205	5,127	-1,160	5,371	27,433	-26,576	-112,440				37,23															
03:18:39.798	COM3_115200	2000-0-0 1:32:47.285	-0,323	-0,272	1,149	9,705	0,549	5,859	29,828	19,407	35,299				39,76															
03:18:39.814	COM8_115200	2000-0-0 1:30:27.500	0,585	-0,127	1,318	10,193	1,526	14,832	27,235	-26,581	-112,335				37,27															
03:18:39.818	COM3_115200	2000-0-0 1:32:47.305	-0,479	-0,205	1,153	11,902	-7,507	-3,784	29,526	19,363	35,140				39,76															
03:18:39.835	COM8_115200	2000-0-0 1:30:27.520	0,717	-0,104	1,233	9,338	11,841	8,606	26,960	-26,532	-112,055				37,23															
03:18:39.845	COM8_115200	2000-0-0 1:30:27.540	0,644	-0,050	1,231	8,118	9,705	7,141	26,658	-26,444	-111,786				37,23															
03:18:39.847	COM3_115200	2000-0-0 1:32:47.325	-0,418	-0,194	1,096	12,207	-6,714	-3,967	29,257	19,297	35,019				39,82															
03:18:39.865	COM8_115200	2000-0-0 1:30:27.560	0,670	-0,091	1,208	7,996	4,456	6,531	26,373	-26,378	-111,555				37,23															
03:18:39.867	COM3_115200	2000-0-0 1:32:47.345	-0,437	-0,194	1,067	10,254	-3,357	-4,028	28,965	19,248	34,876				39,92															
03:18:39.879	COM3_115200	2000-0-0 1:32:47.365	-0,436	-0,226	1,076	8,911	-2,930	-3,601	28,658	19,248	34,777				39,92															
03:18:39.887	COM8_115200	2000-0-0 1:30:27.580	0,663	-0,087	1,218	7,446	-1,282	5,981	26,115	-26,455	-111,412				37,33															
03:18:39.897	COM3_115200	2000-0-0 1:32:47.385	-0,448	-0,229	1,077	8,850	2,075	-4,456	28,345	19,308	34,684				39,85															
03:18:39.938	COM8_115200	2000-0-0 1:30:27.600	0,651	-0,104	1,219	6,165	-1,587	7,263	25,851	-26,565	-111,292				37,23															
03:18:39.939	COM8_115200	2000-0-0 1:30:27.620	0,637	-0,103	1,229	5,127	-1,892	4,639	25,571	-26,664	-111,193				37,30															
03:18:39.941	COM3_115200	2000-0-0 1:32:47.405	-0,424	-0,226	1,094	7,690	1,709	-5,249	28,026	19,418	34,623				39,70															
03:18:39.952	COM3_115200	2000-0-0 1:32:47.425	-0,409	-0,229	1,095	6,775	1,343	-3,601	27,686	19,484	34,552				39,82															
03:18:39.957	COM3_115200	2000-0-0 1:32:47.445	-0,420	-0,244	1,110	6,165	-2,380	-3,052	27,328	19,512	34,475				39,73															
03:18:39.961	COM8_115200	2000-0-0 1:30:27.640	0,639	-0,114	1,242	5,554	-2,136	2,869	25,302	-26,735	-111,121				37,36															
03:18:39.966	COM8_115200	2000-0-0 1:30:27.660	0,634	-0,125	1,248	4,822	-1,892	2,625	25,043	-26,812	-111,083				37,27															
03:18:39.976	COM3_115200	2000-0-0 1:32:47.465	-0,409	-0,245	1,125	6,042	-1,343	-3,296	26,977	19,523	34,404				39,66															
03:18:39.984	COM8_115200	2000-0-0 1:30:27.680	0,651	-0,123	1,265	4,517	-1,953	3,052	24,774	-26,884	-111,033				37,27															
03:18:40.013	COM8_115200	2000-0-0 1:30:27.700	0,654	-0,106	1,267	4,517	-1,099	3,418	24,494	-26,949	-110,967				37,20															
03:18:40.017	COM3_115200	2000-0-0 1:32:47.485	-0,430	-0,260	1,105	5,798	-0,793	-2,991	26,614	19,545	34,327				39,82															
03:18:40.018	COM3_115200	2000-0-0 1:32:47.505	-0,431	-0,238	1,109	5,188	-3,540	-4,272	26,241	19,556	34,233				39,88															
03:18:40.026	COM8_115200	2000-0-0 1:30:27.720	0,627	-0,115	1,251	5,066	1,831	2,625	24,214	-26,971	-110,891				37,20															
03:18:40.036	COM3_115200	2000-0-0 1:32:47.525	-0,413	-0,241	1,105	4,211	-4,822	-2,563	25,851	19,506	34,129				39,92															
03:18:40.055	COM8_115200	2000-0-0 1:30:27.740	0,641	-0,115	1,243	5,005	1,038	2,136	23,939	-26,955	-110,808				37,23															
03:18:40.062	COM3_115200	2000-0-0 1:32:47.545	-0,428	-0,244	1,114	4,211	-1,709	-3,418	25,461	19,484	34,041				39,79															
03:18:40.067	COM8_115200	2000-0-0 1:30:27.760	0,621	-0,118	1,252	5,127	-0,305	2,563	23,687	-26,988	-110,753				37,30															
03:18:40.084	COM3_115200	2000-0-0 1:32:47.565	-0,423	-0,253	1,121	4,639	-1,953	-4,395	25,076	19,506	33,953				39,73															
03:18:40.092	COM8_115200	2000-0-0 1:30:27.780	0,644	-0,122	1,250	5,493	-0,977	2,930	23,428	-27,021	-110,687				37,20															
03:18:40.097	COM3_115200	2000-0-0 1:32:47.585	-0,426	-0,252	1,122	4,822	-3,418	-4,822	24,692	19,506	33,827				39,85															
03:18:40.115	COM8_115200	2000-0-0 1:30:27.800	0,638	-0,129	1,246	5,737	1,892	2,625	23,176	-27,037	-110,610				37,27															
03:18:40.118	COM3_115200	2000-0-0 1:32:47.605	-0,412	-0,252	1,118	4,639	-6,287	-4,395	24,313	19,462	33,695				39,70															
03:18:40.126	COM8_115200	2000-0-0 1:30:27.820	0,616	-0,113	1,255	5,249	5,615	2,075	22,912	-26,977	-110,517				37,14															
03:18:40.137	COM3_115200	2000-0-0 1:32:47.625	-0,413	-0,267	1,124	4,395	-3,357	-2,747	23,934	19,424	33,596				39,85															
03:18:40.145	COM8_115200	2000-0-0 1:30:27.840	0,627	-0,129	1,254	5,371	2,991	1,709	22,648	-26,906	-110,424				37,33															
03:18:40.184	COM8_115200	2000-0-0 1:30:27.860	0,597	-0,129	1,264	6,531	-3,235	2,563	22,423	-26,955	-110,380				37,23															
03:18:40.186	COM8_115200	2000-0-0 1:30:27.880	0,627	-0,142	1,261	7,690	-3,479	4,700	22,209	-27,037	-110,308				37,20															
03:18:40.191	COM3_115200	2000-0-0 1:32:47.645	-0,416	-0,272	1,140	4,883	-3,601	-2,991	23,577	19,391	33,514				39,79															
03:18:40.197	COM3_115200	2000-0-0 1:32:47.665	-0,407	-0,271	1,144	5,737	-1,587	-3,845	23,225	19,380	33,426				39,88															
03:18:40.198	COM3_115200	2000-0-0 1:32:47.685	-0,425	-0,267	1,155	6,714	-2,441	-4,944	22,890	19,380	33,322				39,88															
03:18:40.204	COM8_115200	2000-0-0 1:30:27.900	0,618	-0,141	1,264	7,690	-2,380	5,310	22,006	-27,136	-110,226				37,20															
03:18:40.218	COM3_115200	2000-0-0 1:32:47.705	-0,418	-0,276	1,156	7,996	-3,357	-5,188	22,582	19,369	33,195				39,85															
03:18:40.227	COM8_115200	2000-0-0 1:30:27.920	0,628	-0,132	1,265	7,690	1,465	6,287	21,769	-27,164	-110,078				37,14															
03:18:40.242	COM3_115200	2000-0-0 1:32:47.725	-0,408	-0,283	1,157	9,399	-2,380	-5,188	22,291	19,363	33,063				39,76															
03:18:40.246	COM8_115200	2000-0-0 1:30:27.940	0,627	-0,138	1,264	7,629	2,319	7,141	21,522	-27,175	-109,902				37,08															
03:18:40.257	COM3_115200	2000-0-0 1:32:47.745	-0,462	-0,279	1,140	10,132	-3,540	-6,470	22,028	19,347	32,921				39,60															
03:18:40.299	COM8_115200	2000-0-0 1:30:27.960	0,628	-0,139	1,269	8,362	0,427	7,874	21,275	-27,197	-109,726				37,30															
03:18:40.301	COM8_115200	2000-0-0 1:30:27.980	0,633	-0,145	1,249	9,033	-0,793	8,179	21,044	-27,241	-109,534				37,27															
03:18:40.304	COM3_115200	2000-0-0 1:32:47.765	-0,425	-0,292	1,134	10,864	-2,502	-7,202	21,769	19,358	32,772				39,98															
03:18:40.306	COM3_115200	2000-0-0 1:32:47.785	-0,426	-0,277	1,123	10,864	-1,831	-6,409	21,517	19,374	32,607				39,88															
03:18:40.317	COM8_115200	2000-0-0 1:30:28.000	0,638	-0,147	1,232	8,484	-1,404	9,460	20,808	-27,323	-109,330				37,20															
03:18:40.317	COM3_115200	2000-0-0 1:32:47.805	-0,432	-0,289	1,140	11,658	-2,014	-6,348	21,281	19,391	32,470				39,76															
03:18:40.325	COM8_115200	2000-0-0 1:30:28.020	0,625	-0,140	1,244	8,179	-2,136	9,949	20,572	-27,433	-109,127				37,20															
03:18:40.337	COM3_115200	2000-0-0 1:32:47.825	-0,398	-0,300	1,152	13,123	-0,122	-5,432	21,083	19,418	32,360				39,92															
03:18:40.347	COM8_115200	2000-0-0 1:30:28.040	0,629	-0,144	1,252	8,057	-1,648	9,583	20,330	-27,526	-108,924				37,30															
03:18:40.357	COM3_115200	2000-0-0 1:32:47.845	-0,412	-0,308	1,156	14,099	2,747	-5,127	20,912	19,484	32,261				39,79															
03:18:40.366	COM8_115200	2000-0-0 1:30:28.060	0,620	-0,169	1,253	8,240	0,671	9,399	20,083	-27,587	-108,710				37,17															
03:18:40.377	COM3_115200	2000-0-0 1:32:47.865	-0,398	-0,307	1,172	15,259	3,357	-4,211	20,775	19,583	32,195				39,85															
03:18:40.391	COM8_115200	2000-0-0 1:30:28.080	0,621	-0,169	1,251	7,874	2,991	9,949	19,819	-27,603	-108,468				37,17															
03:18:40.403	COM3_115200	2000-0-0 1:32:47.885	-0,429	-0,321	1,179	16,846	4,578	-4,333	20,665	19,688	32,146				39,73															
03:18:40.407	COM8_115200	2000-0-0 1:30:28.100	0,645	-0,168	1,267	7,080	5,005	10,986	19,528	-27,592	-108,193				37,14															
03:18:40.416	COM3_115200	2000-0-0 1:32:47.905	-0,437	-0,322	1,150	17,334	1,770	-3,784	20,583	19,764	32,091				39,76															
03:18:40.427	COM8_115200	2000-0-0 1:30:28.120	0,649	-0,174	1,270	7,141	7,568	10,376	19,232	-27,521	-107,908				37,27															
03:18:40.439	COM3_115200	2000-0-0 1:32:47.925	-0,450	-0,296	1,113	15,625	-0,793	-4,272	20,462	19,781	32,003				39,76															
03:18:40.445	COM8_115200	2000-0-0 1:30:28.140	0,646	-0,174	1,252	7,141	9,521	9,827	18,929	-27,400	-107,611				37,27															
03:18:40.455	COM3_115200	2000-0-0 1:32:47.945	-0,426	-0,319	1,099	13,550	2,319	-4,517	20,308	19,841	31,921				39,76															
03:18:40.475	COM8_115200	2000-0-0 1:30:28.160	0,633	-0,176	1,260	6,897	5,676	9,277	18,644	-27,323	-107,347				37,17															
03:18:40.486	COM3_115200	2000-0-0 1:32:47.965	-0,461	-0,325	1,091	12,756	0,793	-4,456	20,127	19,891	31,833				39,73															
03:18:40.489	COM8_115200	2000-0-0 1:30:28.180	0,666	-0,192	1,252	7,324	1,221	8,728	18,380	-27,312	-107,122				37,20															
03:18:40.506	COM3_115200	2000-0-0 1:32:47.985	-0,441	-0,331	1,090	11,414	1,099	-3,662	19,924	19,951	31,761				39,82															
03:18:40.527	COM8_115200	2000-0-0 1:30:28.200	0,639	-0,197	1,255	7,751	-1,953	7,996	18,144	-27,389	-106,941				37,23															
03:18:40.528	COM8_115200	2000-0-0 1:30:28.220	0,627	-0,203	1,256	7,568	-4,517	7,690	17,924	-27,493	-106,787				37,20															
03:18:40.529	COM3_115200	2000-0-0 1:32:48.005	-0,443	-0,327	1,091	8,850	-2,197	-3,601	19,677	19,957	31,679				39,95															
03:18:40.541	COM3_115200	2000-0-0 1:32:48.025	-0,412	-0,337	1,119	6,897	-1,953	-3,052	19,385	19,951	31,608				39,82															
03:18:40.546	COM8_115200	2000-0-0 1:30:28.240	0,620	-0,220	1,267	7,263	-4,333	6,104	17,710	-27,609	-106,672				37,23															
03:18:40.557	COM3_115200	2000-0-0 1:32:48.045	-0,400	-0,351	1,148	5,432	-3,967	-2,869	19,056	19,913	31,520				39,88															
03:18:40.566	COM8_115200	2000-0-0 1:30:28.260	0,612	-0,220	1,281	7,141	-3,723	5,249	17,496	-27,713	-106,562				37,17															
03:18:40.581	COM3_115200	2000-0-0 1:32:48.065	-0,385	-0,356	1,176	5,188	-4,333	-2,319	18,721	19,858	31,443				39,76															
03:18:40.586	COM8_115200	2000-0-0 1:30:28.280	0,620	-0,225	1,275	7,568	-0,427	5,432	17,287	-27,757	-106,447				37,20															
03:18:40.595	COM3_115200	2000-0-0 1:32:48.085	-0,398	-0,370	1,173	5,371	-5,615	-1,404	18,386	19,764	31,371				39,85															
03:18:40.613	COM8_115200	2000-0-0 1:30:28.300	0,625	-0,232	1,287	7,935	2,502	5,066	17,067	-27,740	-106,309				37,23															
03:18:40.622	COM3_115200	2000-0-0 1:32:48.105	-0,395	-0,356	1,186	5,493	-9,949	-2,258	18,056	19,616	31,278				39,82															
03:18:40.626	COM8_115200	2000-0-0 1:30:28.320	0,595	-0,223	1,281	8,667	3,052	5,920	16,853	-27,702	-106,150				37,30															
03:18:40.653	COM3_115200	2000-0-0 1:32:48.125	-0,398	-0,362	1,180	6,409	-6,042	-2,991	17,732	19,473	31,179				39,92															
03:18:40.654	COM3_115200	2000-0-0 1:32:48.145	-0,451	-0,361	1,182	7,751	-3,296	-3,052	17,441	19,407	31,091				39,92															
03:18:40.659	COM8_115200	2000-0-0 1:30:28.340	0,638	-0,233	1,259	8,240	6,104	2,563	16,644	-27,603	-106,002				37,08															
03:18:40.684	COM3_115200	2000-0-0 1:32:48.165	-0,436	-0,357	1,163	8,545	-4,883	-2,869	17,177	19,347	31,014				39,66															
03:18:40.687	COM8_115200	2000-0-0 1:30:28.360	0,646	-0,226	1,252	8,484	6,714	7,385	16,430	-27,515	-105,831				37,30															
03:18:40.688	COM8_115200	2000-0-0 1:30:28.380	0,651	-0,212	1,256	7,935	5,188	6,531	16,205	-27,427	-105,645				37,27															
03:18:40.699	COM3_115200	2000-0-0 1:32:48.185	-0,440	-0,343	1,140	8,118	-5,737	-3,418	16,902	19,248	30,910				39,76															
03:18:40.706	COM8_115200	2000-0-0 1:30:28.400	0,649	-0,220	1,234	7,568	1,587	5,615	15,985	-27,383	-105,491				37,30															
03:18:40.717	COM3_115200	2000-0-0 1:32:48.205	-0,436	-0,350	1,127	7,507	-2,686	-4,272	16,622	19,199	30,806				39,79															
03:18:40.726	COM8_115200	2000-0-0 1:30:28.420	0,632	-0,219	1,234	6,653	-1,282	4,272	15,760	-27,405	-105,370				37,33															
03:18:40.741	COM3_115200	2000-0-0 1:32:48.225	-0,440	-0,362	1,130	7,446	-0,244	-4,333	16,348	19,204	30,718				39,92															
03:18:40.746	COM8_115200	2000-0-0 1:30:28.440	0,624	-0,237	1,244	6,653	-4,944	4,028	15,562	-27,482	-105,293				37,14															
03:18:40.758	COM3_115200	2000-0-0 1:32:48.245	-0,441	-0,364	1,139	7,263	0,305	-4,578	16,068	19,248	30,635				39,79															
03:18:40.767	COM8_115200	2000-0-0 1:30:28.460	0,631	-0,243	1,270	7,019	-7,263	3,235	15,375	-27,625	-105,255				37,33															
03:18:40.782	COM3_115200	2000-0-0 1:32:48.265	-0,396	-0,355	1,148	6,409	-2,136	-4,089	15,787	19,254	30,553				39,73															
03:18:40.794	COM3_115200	2000-0-0 1:32:48.285	-0,406	-0,370	1,161	5,798	-3,784	-3,479	15,480	19,210	30,465				39,92															
03:18:40.824	COM8_115200	2000-0-0 1:30:28.480	0,617	-0,254	1,284	7,996	-6,958	1,831	15,216	-27,757	-105,233				37,23															
03:18:40.828	COM8_115200	2000-0-0 1:30:28.500	0,613	-0,252	1,304	8,972	-7,385	1,770	15,084	-27,900	-105,222				37,23															
03:18:40.829	COM8_115200	2000-0-0 1:30:28.520	0,612	-0,258	1,303	9,338	-5,310	2,808	14,963	-28,004	-105,200				37,20															
03:18:40.838	COM3_115200	2000-0-0 1:32:48.305	-0,411	-0,388	1,175	5,615	-3,601	-3,357	15,178	19,160	30,383				39,82															
03:18:40.839	COM3_115200	2000-0-0 1:32:48.325	-0,419	-0,387	1,182	5,676	-3,235	-4,456	14,875	19,116	30,295				39,82															
03:18:40.845	COM8_115200	2000-0-0 1:30:28.540	0,610	-0,255	1,290	9,216	-1,465	3,357	14,815	-28,054	-105,128				37,27															
03:18:40.856	COM3_115200	2000-0-0 1:32:48.345	-0,417	-0,380	1,188	5,493	-3,357	-5,432	14,562	19,072	30,179				39,70															
03:18:40.874	COM8_115200	2000-0-0 1:30:28.560	0,608	-0,262	1,273	8,789	0,610	4,028	14,650	-28,043	-105,029				37,42															
03:18:40.885	COM8_115200	2000-0-0 1:30:28.580	0,623	-0,253	1,268	8,118	-1,099	4,822	14,469	-28,048	-104,919				37,27															
03:18:40.888	COM3_115200	2000-0-0 1:32:48.365	-0,429	-0,379	1,203	6,287	-2,197	-6,104	14,255	19,045	30,053				39,79															
03:18:40.909	COM3_115200	2000-0-0 1:32:48.385	-0,446	-0,396	1,192	7,141	-1,526	-5,493	13,975	19,034	29,938				39,63															
03:18:40.913	COM3_115200	2000-0-0 1:32:48.405	-0,426	-0,380	1,175	7,324	-3,113	-6,226	13,705	19,012	29,806				39,79															
03:18:40.916	COM8_115200	2000-0-0 1:30:28.600	0,639	-0,250	1,261	7,080	-0,732	4,639	14,260	-28,059	-104,804				37,14															
03:18:40.937	COM8_115200	2000-0-0 1:30:28.620	0,626	-0,250	1,257	6,531	2,319	5,005	14,035	-28,032	-104,667				37,14															
03:18:40.945	COM8_115200	2000-0-0 1:30:28.640	0,623	-0,252	1,261	6,836	-0,366	4,761	13,821	-28,004	-104,540				37,20															
03:18:40.947	COM3_115200	2000-0-0 1:32:48.425	-0,443	-0,384	1,146	6,470	-0,854	-6,409	13,420	18,990	29,674				39,92															
03:18:40.967	COM3_115200	2000-0-0 1:32:48.445	-0,434	-0,390	1,156	5,981	-0,305	-6,409	13,129	19,023	29,548				39,92															
03:18:40.972	COM8_115200	2000-0-0 1:30:28.660	0,625	-0,258	1,256	7,141	-4,395	5,066	13,623	-28,059	-104,436				37,20															
03:18:40.977	COM3_115200	2000-0-0 1:32:48.465	-0,449	-0,402	1,159	6,104	-0,122	-5,737	12,838	19,050	29,427				39,76															
03:18:40.977	COM8_115200	2000-0-0 1:30:28.680	0,624	-0,267	1,263	6,226	-6,775	4,944	13,414	-28,180	-104,337				37,23															
03:18:40.994	COM3_115200	2000-0-0 1:32:48.485	-0,420	-0,390	1,150	5,554	-2,625	-5,188	12,557	19,050	29,317				39,79															
03:18:41.027	COM8_115200	2000-0-0 1:30:28.700	0,588	-0,260	1,265	6,531	-8,606	5,005	13,211	-28,334	-104,249				37,17															
03:18:41.027	COM8_115200	2000-0-0 1:30:28.720	0,599	-0,270	1,263	8,057	-20,813	5,127	13,057	-28,641	-104,205				37,20															
03:18:41.027	COM3_115200	2000-0-0 1:32:48.505	-0,431	-0,386	1,144	3,357	-4,150	-3,784	12,239	18,990	29,224				39,88															
03:18:41.027	COM3_115200	2000-0-0 1:32:48.525	-0,426	-0,407	1,169	2,075	-2,747	-3,418	11,898	18,946	29,152				39,88															
03:18:41.054	COM3_115200	2000-0-0 1:32:48.545	-0,437	-0,416	1,182	2,014	-2,747	-2,258	11,558	18,907	29,092				39,82															
03:18:41.059	COM8_115200	2000-0-0 1:30:28.740	0,561	-0,281	1,277	8,118	-25,452	5,737	12,931	-29,097	-104,189				37,33															
03:18:41.073	COM3_115200	2000-0-0 1:32:48.565	-0,429	-0,401	1,180	2,197	-6,836	-1,648	11,223	18,820	29,037				39,95															
03:18:41.099	COM3_115200	2000-0-0 1:32:48.585	-0,437	-0,399	1,180	2,014	-6,775	-0,671	10,893	18,688	29,004				39,76															
03:18:41.115	COM3_115200	2000-0-0 1:32:48.605	-0,434	-0,400	1,191	2,441	-7,324	-0,854	10,574	18,556	28,971				39,76															
03:18:41.132	COM8_115200	2000-0-0 1:30:28.760	0,579	-0,288	1,285	8,484	-26,550	7,019	12,788	-29,592	-104,145				37,23															
03:18:41.137	COM8_115200	2000-0-0 1:30:28.780	0,620	-0,292	1,276	9,460	-24,536	5,066	12,662	-30,042	-104,112				37,30															
03:18:41.140	COM8_115200	2000-0-0 1:30:28.800	0,555	-0,284	1,273	9,949	-22,034	4,333	12,574	-30,454	-104,128				37,30															
03:18:41.143	COM8_115200	2000-0-0 1:30:28.820	0,562	-0,277	1,261	10,193	-21,423	6,287	12,453	-30,811	-104,041				37,20															
03:18:41.146	COM8_115200	2000-0-0 1:30:28.840	0,596	-0,290	1,245	9,888	-24,231	5,920	12,338	-31,229	-103,975				37,20															
03:18:41.149	COM3_115200	2000-0-0 1:32:48.625	-0,448	-0,407	1,189	2,686	-6,470	-0,366	10,267	18,435	28,943				39,82															
03:18:41.157	COM3_115200	2000-0-0 1:32:48.645	-0,456	-0,399	1,185	2,930	-9,888	0,000	9,976	18,276	28,922				39,95															
03:18:41.173	COM3_115200	2000-0-0 1:32:48.665	-0,442	-0,399	1,179	3,601	-10,010	0,427	9,690	18,078	28,911				39,76															
03:18:41.182	COM8_115200	2000-0-0 1:30:28.860	0,550	-0,291	1,228	9,827	-22,278	5,615	12,222	-31,630	-103,914				37,27															
03:18:41.201	COM3_115200	2000-0-0 1:32:48.685	-0,434	-0,400	1,184	4,578	-6,409	-0,122	9,432	17,935	28,900				39,82															
03:18:41.204	COM8_115200	2000-0-0 1:30:28.880	0,579	-0,292	1,199	9,399	-24,414	7,019	12,074	-31,998	-103,810				37,23															
03:18:41.206	COM8_115200	2000-0-0 1:30:28.900	0,572	-0,281	1,235	8,362	-23,315	5,432	11,926	-32,421	-103,738				37,11															
03:18:41.220	COM3_115200	2000-0-0 1:32:48.705	-0,432	-0,406	1,195	4,761	-2,625	-0,366	9,190	17,864	28,894				39,82															
03:18:41.233	COM3_115200	2000-0-0 1:32:48.725	-0,453	-0,406	1,199	4,700	-0,488	-0,244	8,948	17,858	28,900				39,76															
03:18:41.238	COM8_115200	2000-0-0 1:30:28.920	0,554	-0,288	1,219	7,751	-14,709	6,104	11,744	-32,723	-103,618				37,20															
03:18:41.256	COM8_115200	2000-0-0 1:30:28.940	0,583	-0,299	1,216	6,897	-12,085	5,615	11,536	-32,893	-103,475				37,17															
03:18:41.263	COM3_115200	2000-0-0 1:32:48.745	-0,429	-0,406	1,199	4,089	-1,160	-0,305	8,707	17,858	28,916				39,76															
03:18:41.268	COM8_115200	2000-0-0 1:30:28.960	0,564	-0,289	1,224	5,432	-9,277	3,662	11,327	-33,052	-103,365				37,23															
03:18:41.278	COM3_115200	2000-0-0 1:32:48.765	-0,431	-0,413	1,207	3,967	0,183	-0,854	8,459	17,864	28,916				39,82															
03:18:41.288	COM8_115200	2000-0-0 1:30:28.980	0,492	-0,314	1,229	3,235	5,493	5,920	11,036	-32,975	-103,184				37,17															
03:18:41.293	COM3_115200	2000-0-0 1:32:48.785	-0,442	-0,427	1,217	4,089	1,587	-1,770	8,207	17,902	28,911				39,85															
03:18:41.304	COM8_115200	2000-0-0 1:30:29.000	0,544	-0,333	1,214	2,686	9,399	5,005	10,690	-32,684	-102,958				37,27															
03:18:41.314	COM3_115200	2000-0-0 1:32:48.805	-0,434	-0,419	1,218	4,456	0,610	-1,526	7,965	17,941	28,900				39,92															
03:18:41.328	COM8_115200	2000-0-0 1:30:29.020	0,538	-0,316	1,229	2,441	1,892	3,540	10,371	-32,558	-102,783				37,23															
03:18:41.343	COM3_115200	2000-0-0 1:32:48.825	-0,421	-0,428	1,218	5,310	0,793	-1,282	7,740	17,963	28,894				39,95															
03:18:41.347	COM8_115200	2000-0-0 1:30:29.040	0,536	-0,336	1,227	1,648	7,080	4,089	10,047	-32,366	-102,612				37,20															
03:18:41.364	COM3_115200	2000-0-0 1:32:48.845	-0,438	-0,420	1,200	5,920	1,465	-0,732	7,531	17,996	28,889				39,82															
03:18:41.401	COM8_115200	2000-0-0 1:30:29.060	0,537	-0,338	1,236	1,099	10,315	3,784	9,701	-32,091	-102,431				37,30															
03:18:41.403	COM3_115200	2000-0-0 1:32:48.865	-0,455	-0,426	1,195	5,981	0,916	-0,854	7,333	18,029	28,889				39,85															
03:18:41.404	COM3_115200	2000-0-0 1:32:48.885	-0,444	-0,425	1,174	5,615	2,075	-0,427	7,130	18,083	28,900				39,82															
03:18:41.417	COM3_115200	2000-0-0 1:32:48.905	-0,462	-0,420	1,162	3,967	0,671	-0,732	6,905	18,111	28,900				39,82															
03:18:41.421	COM8_115200	2000-0-0 1:30:29.080	0,548	-0,326	1,233	1,709	9,583	2,747	9,371	-31,811	-102,266				37,23															
03:18:41.422	COM8_115200	2000-0-0 1:30:29.100	0,571	-0,324	1,230	2,563	3,479	1,953	9,080	-31,613	-102,145				37,36															
03:18:41.424	COM8_115200	2000-0-0 1:30:29.120	0,536	-0,335	1,231	2,747	2,502	1,282	8,822	-31,481	-102,057				37,23															
03:18:41.437	COM3_115200	2000-0-0 1:32:48.925	-0,434	-0,423	1,168	3,418	0,244	-1,038	6,663	18,138	28,905				39,79															
03:18:41.464	COM8_115200	2000-0-0 1:30:29.140	0,523	-0,337	1,234	2,258	2,197	1,526	8,553	-31,333	-101,964				37,27															
03:18:41.465	COM8_115200	2000-0-0 1:30:29.160	0,551	-0,344	1,240	2,319	-1,831	1,099	8,300	-31,251	-101,904				37,30															
03:18:41.467	COM3_115200	2000-0-0 1:32:48.945	-0,448	-0,433	1,179	2,808	0,549	-0,549	6,411	18,149	28,900				39,79															
03:18:41.476	COM3_115200	2000-0-0 1:32:48.965	-0,429	-0,430	1,197	2,075	-0,061	-0,488	6,147	18,171	28,905				39,79															
03:18:41.486	COM8_115200	2000-0-0 1:30:29.180	0,533	-0,344	1,267	2,136	-1,465	0,671	8,042	-31,207	-101,843				37,30															
03:18:41.492	COM3_115200	2000-0-0 1:32:48.985	-0,411	-0,436	1,204	1,465	-1,892	-0,610	5,872	18,166	28,905				39,82															
03:18:41.507	COM8_115200	2000-0-0 1:30:29.200	0,561	-0,337	1,258	2,502	-1,099	0,854	7,795	-31,124	-101,783				37,27															
03:18:41.513	COM3_115200	2000-0-0 1:32:49.005	-0,437	-0,441	1,211	1,587	-3,479	-0,977	5,592	18,105	28,894				39,82															
03:18:41.533	COM8_115200	2000-0-0 1:30:29.220	0,542	-0,338	1,249	2,258	3,723	0,732	7,542	-31,009	-101,711				37,30															
03:18:41.537	COM3_115200	2000-0-0 1:32:49.025	-0,429	-0,425	1,209	1,709	-4,883	-0,977	5,317	18,034	28,878				39,95															
03:18:41.553	COM8_115200	2000-0-0 1:30:29.240	0,538	-0,333	1,245	1,587	9,888	0,366	7,284	-30,762	-101,640				37,23															
03:18:41.566	COM3_115200	2000-0-0 1:32:49.045	-0,438	-0,438	1,195	1,770	-2,808	-1,404	5,048	17,968	28,861				39,92															
03:18:41.583	COM8_115200	2000-0-0 1:30:29.260	0,561	-0,335	1,233	2,075	4,883	0,488	7,026	-30,526	-101,569				37,33															
03:18:41.585	COM8_115200	2000-0-0 1:30:29.280	0,567	-0,331	1,235	2,075	4,761	0,793	6,784	-30,355	-101,508				37,11															
03:18:41.590	COM3_115200	2000-0-0 1:32:49.065	-0,448	-0,427	1,197	1,404	-2,563	-2,197	4,774	17,924	28,834				39,85															
03:18:41.591	COM3_115200	2000-0-0 1:32:49.085	-0,448	-0,437	1,190	1,648	0,793	-2,075	4,499	17,930	28,806				39,82															
03:18:41.607	COM8_115200	2000-0-0 1:30:29.300	0,559	-0,327	1,229	1,587	3,967	0,366	6,537	-30,190	-101,448				37,20															
03:18:41.611	COM3_115200	2000-0-0 1:32:49.105	-0,468	-0,417	1,182	1,465	0,305	-2,136	4,230	17,946	28,768				39,79															
03:18:41.630	COM8_115200	2000-0-0 1:30:29.320	0,563	-0,323	1,232	1,160	1,709	0,427	6,290	-30,053	-101,398				37,27															
03:18:41.634	COM3_115200	2000-0-0 1:32:49.125	-0,443	-0,412	1,184	0,854	0,977	-2,625	3,955	17,985	28,735				39,82															
03:18:41.647	COM8_115200	2000-0-0 1:30:29.340	0,541	-0,323	1,244	0,671	0,305	0,305	6,042	-29,971	-101,360				37,11															
03:18:41.657	COM3_115200	2000-0-0 1:32:49.145	-0,438	-0,422	1,200	0,427	0,061	-2,625	3,664	18,007	28,691				39,82															
03:18:41.665	COM8_115200	2000-0-0 1:30:29.360	0,547	-0,334	1,248	0,488	-1,160	0,366	5,795	-29,899	-101,327				37,14															
03:18:41.673	COM3_115200	2000-0-0 1:32:49.165	-0,417	-0,435	1,210	0,610	0,305	-1,709	3,389	18,029	28,658				39,92															
03:18:41.685	COM8_115200	2000-0-0 1:30:29.380	0,547	-0,336	1,267	0,610	1,099	0,488	5,548	-29,822	-101,288				37,20															
03:18:41.697	COM3_115200	2000-0-0 1:32:49.185	-0,439	-0,447	1,208	1,221	-1,038	-1,709	3,120	18,029	28,630				39,60															
03:18:41.709	COM8_115200	2000-0-0 1:30:29.400	0,546	-0,338	1,268	1,648	0,488	-0,061	5,312	-29,729	-101,245				37,23															
03:18:41.713	COM3_115200	2000-0-0 1:32:49.205	-0,443	-0,438	1,203	1,038	-3,662	-0,977	2,867	17,996	28,614				39,85															
