Time	COM	Chip Time()	Acceleration X(g)	Acceleration Y(g)	Acceleration Z(g)	Angular velocity X(/s)	Angular velocity Y(/s)	Angular velocity Z(/s)	Angle X()	Angle Y()	Angle Z()	Magnetic field X(?t)	Magnetic field Y(?t)	Magnetic field Z(?t)	Temperature(?)	Pressure(Pa)	Height(m)	Longitude()	Latitude()	GPS ground speed(km)	GPS course()	GPS height(m)	Number of satellites()	Position location()	Horizontal position()	Vertical position()	Quaternions 0()	Quaternions 1()	Quaternions 2()	Quaternions 3()
03:11:19.822	COM3_115200	2000-0-0 1:25:26.165	0,504	-0,865	1,840	9,888	-4,578	-28,503	-30,465	-33,695	164,553				39,44															
03:11:19.828	COM8_115200	2000-0-0 1:23:7.480	0,529	0,883	1,940	-7,202	-15,259	24,719	21,649	-37,524	32,849				37,71															
03:11:19.872	COM3_115200	2000-0-0 1:25:26.185	0,473	-0,941	1,794	8,789	-0,427	-23,682	-29,888	-33,717	163,911				39,57															
03:11:19.873	COM3_115200	2000-0-0 1:25:26.205	0,373	-0,988	1,802	5,737	-20,752	-17,639	-29,614	-33,871	163,537				39,57															
03:11:19.884	COM8_115200	2000-0-0 1:23:7.500	0,565	0,849	1,923	-5,371	-20,996	21,790	21,352	-37,755	33,223				37,80															
03:11:19.890	COM8_115200	2000-0-0 1:23:7.520	0,513	0,870	1,896	-0,977	-18,921	20,813	21,138	-37,985	33,563				37,80															
03:11:19.894	COM8_115200	2000-0-0 1:23:7.540	0,538	0,882	1,850	-1,160	-24,597	20,630	20,984	-38,238	33,871				37,80															
03:11:19.902	COM3_115200	2000-0-0 1:25:26.225	0,455	-0,867	1,876	19,043	-35,645	-15,015	-29,240	-34,299	163,416				39,66															
03:11:19.905	COM8_115200	2000-0-0 1:23:7.560	0,534	0,854	1,835	-0,610	-25,513	17,639	20,880	-38,551	34,091				37,80															
03:11:19.909	COM3_115200	2000-0-0 1:25:26.245	0,473	-0,896	1,848	14,343	-40,955	-12,512	-28,993	-34,882	163,493				39,66															
03:11:19.927	COM3_115200	2000-0-0 1:25:26.265	0,425	-0,943	1,822	13,733	-50,476	-4,089	-28,911	-35,475	163,801				39,66															
03:11:19.938	COM8_115200	2000-0-0 1:23:7.580	0,555	0,837	1,791	-1,465	-26,123	13,977	20,825	-38,848	34,233				37,83															
03:11:19.940	COM8_115200	2000-0-0 1:23:7.600	0,516	0,854	1,788	-0,305	-26,733	11,841	20,814	-39,144	34,321				37,74															
03:11:19.945	COM3_115200	2000-0-0 1:25:26.285	0,491	-0,918	1,848	6,775	-49,316	2,258	-28,987	-36,046	164,268				39,63															
03:11:19.962	COM3_115200	2000-0-0 1:25:26.305	0,532	-0,941	1,784	2,075	-64,392	5,127	-29,344	-36,738	164,932				39,73															
03:11:19.978	COM3_115200	2000-0-0 1:25:26.325	0,428	-0,937	1,746	1,221	-73,792	10,620	-29,894	-37,612	165,883				39,54															
03:11:19.994	COM8_115200	2000-0-0 1:23:7.620	0,618	0,702	1,692	16,907	-30,090	8,484	21,006	-39,413	34,310				37,74															
03:11:20.012	COM8_115200	2000-0-0 1:23:7.640	0,647	0,832	1,714	10,437	-29,480	10,071	21,308	-39,771	34,288				37,80															
03:11:20.029	COM8_115200	2000-0-0 1:23:7.660	0,589	0,888	1,798	8,667	-33,081	10,986	21,621	-40,144	34,255				37,80															
03:11:20.029	COM8_115200	2000-0-0 1:23:7.680	0,592	0,826	1,797	0,854	-33,203	5,554	21,835	-40,523	34,118				37,77															
03:11:20.045	COM8_115200	2000-0-0 1:23:7.700	0,569	0,813	1,786	-3,052	-26,672	-0,427	21,989	-40,787	33,893				37,90															
03:11:20.045	COM8_115200	2000-0-0 1:23:7.720	0,552	0,861	1,798	-5,920	-23,865	-2,747	22,110	-40,946	33,618				37,74															
03:11:20.062	COM3_115200	2000-0-0 1:25:26.345	0,451	-0,931	1,737	-1,404	-80,872	11,841	-30,602	-38,529	166,998				39,70															
03:11:20.062	COM3_115200	2000-0-0 1:25:26.365	0,406	-0,885	1,726	-1,892	-86,731	11,353	-31,410	-39,578	168,250				39,63															
03:11:20.062	COM3_115200	2000-0-0 1:25:26.385	0,367	-0,885	1,705	-1,587	-78,552	11,353	-32,245	-40,518	169,497				39,54															
03:11:20.062	COM3_115200	2000-0-0 1:25:26.405	0,340	-0,863	1,696	-1,404	-67,688	10,437	-32,986	-41,281	170,618				39,57															
03:11:20.078	COM8_115200	2000-0-0 1:23:7.740	0,568	0,837	1,813	-8,545	-18,860	-2,380	22,159	-41,006	33,365				37,61															
03:11:20.078	COM3_115200	2000-0-0 1:25:26.425	0,315	-0,878	1,680	-1,587	-53,101	7,751	-33,602	-41,830	171,535				39,51															
03:11:20.099	COM8_115200	2000-0-0 1:23:7.760	0,578	0,835	1,834	-11,963	-12,756	-2,563	22,121	-40,979	33,162				37,80															
03:11:20.112	COM3_115200	2000-0-0 1:25:26.445	0,302	-0,862	1,705	-2,136	-34,058	3,479	-33,992	-42,111	172,117				39,57															
03:11:20.112	COM8_115200	2000-0-0 1:23:7.780	0,559	0,821	1,840	-13,489	-4,761	-2,686	21,989	-40,798	33,036				37,80															
03:11:20.128	COM3_115200	2000-0-0 1:25:26.465	0,366	-0,879	1,711	-6,226	-20,386	-1,221	-34,200	-42,144	172,343				39,54															
03:11:20.145	COM3_115200	2000-0-0 1:25:26.485	0,353	-0,880	1,693	-6,042	-11,230	-2,319	-34,299	-42,061	172,354				39,63															
03:11:20.145	COM8_115200	2000-0-0 1:23:7.800	0,533	0,800	1,853	-13,306	-3,357	-2,380	21,819	-40,551	32,953				37,80															
03:11:20.163	COM8_115200	2000-0-0 1:23:7.820	0,518	0,785	1,853	-12,878	-4,395	-1,526	21,643	-40,320	32,877				37,87															
03:11:20.170	COM3_115200	2000-0-0 1:25:26.505	0,400	-0,871	1,734	-8,728	-4,089	-4,150	-34,316	-41,825	172,205				39,54															
03:11:20.184	COM8_115200	2000-0-0 1:23:7.840	0,520	0,806	1,855	-11,292	-4,639	-2,014	21,489	-40,095	32,811				37,64															
03:11:20.189	COM3_115200	2000-0-0 1:25:26.525	0,395	-0,837	1,753	-10,315	-4,211	-5,432	-34,332	-41,605	172,002				39,66															
03:11:20.207	COM3_115200	2000-0-0 1:25:26.545	0,395	-0,841	1,769	-13,428	1,343	-4,822	-34,360	-41,314	171,749				39,54															
03:11:20.209	COM8_115200	2000-0-0 1:23:7.860	0,545	0,785	1,853	-9,399	-1,343	-1,343	21,363	-39,842	32,750				37,83															
03:11:20.212	COM8_115200	2000-0-0 1:23:7.880	0,538	0,791	1,859	-3,662	-2,014	1,343	21,275	-39,567	32,761				37,80															
03:11:20.242	COM3_115200	2000-0-0 1:25:26.565	0,387	-0,855	1,757	-14,526	-2,441	-3,723	-34,442	-41,028	171,519				39,44															
03:11:20.245	COM3_115200	2000-0-0 1:25:26.585	0,370	-0,839	1,752	-14,160	-3,967	-4,700	-34,563	-40,792	171,337				39,51															
03:11:20.265	COM8_115200	2000-0-0 1:23:7.900	0,552	0,800	1,859	-2,136	-5,737	2,686	21,248	-39,375	32,794				37,83															
03:11:20.265	COM8_115200	2000-0-0 1:23:7.920	0,579	0,811	1,875	-2,991	-9,644	2,686	21,226	-39,265	32,800				37,77															
03:11:20.278	COM3_115200	2000-0-0 1:25:26.605	0,387	-0,882	1,733	-12,329	-2,075	-5,554	-34,618	-40,545	171,101				39,54															
03:11:20.286	COM8_115200	2000-0-0 1:23:7.940	0,516	0,829	1,882	-4,761	-10,315	2,258	21,193	-39,183	32,778				37,71															
03:11:20.295	COM3_115200	2000-0-0 1:25:26.625	0,374	-0,862	1,713	-8,057	-3,967	-8,606	-34,585	-40,358	170,837				39,60															
03:11:20.295	COM8_115200	2000-0-0 1:23:7.960	0,524	0,819	1,869	-5,981	-15,259	2,747	21,154	-39,150	32,734				37,87															
03:11:20.295	COM3_115200	2000-0-0 1:25:26.645	0,348	-0,858	1,701	-3,662	-3,296	-11,719	-34,437	-40,188	170,535				39,66															
03:11:20.312	COM8_115200	2000-0-0 1:23:7.980	0,513	0,797	1,883	-9,521	-20,264	4,211	21,072	-39,238	32,657				37,74															
03:11:20.321	COM3_115200	2000-0-0 1:25:26.665	0,437	-0,827	1,691	2,258	-8,423	-17,761	-34,151	-40,106	170,151				39,54															
03:11:20.338	COM8_115200	2000-0-0 1:23:8.000	0,639	0,755	1,848	-12,878	-25,452	8,972	20,901	-39,435	32,618				37,80															
03:11:20.345	COM3_115200	2000-0-0 1:25:26.685	0,492	-0,792	1,663	13,123	-14,160	-26,123	-33,640	-40,221	169,684				39,57															
03:11:20.362	COM8_115200	2000-0-0 1:23:8.020	0,525	0,802	1,795	-17,578	-23,499	14,526	20,550	-39,688	32,723				37,77															
03:11:20.378	COM3_115200	2000-0-0 1:25:26.705	0,548	-0,845	1,680	20,081	-42,236	-28,809	-33,047	-40,644	169,387				39,66															
03:11:20.378	COM3_115200	2000-0-0 1:25:26.725	0,515	-0,744	1,725	24,658	-71,899	-26,733	-32,657	-41,677	169,596				39,54															
03:11:20.415	COM8_115200	2000-0-0 1:23:8.040	0,491	0,779	1,806	-22,522	-28,870	18,738	20,078	-40,018	32,899				37,74															
03:11:20.415	COM8_115200	2000-0-0 1:23:8.060	0,625	0,747	1,804	-27,283	-33,875	21,423	19,479	-40,485	33,107				37,77															
03:11:20.424	COM3_115200	2000-0-0 1:25:26.745	0,462	-0,745	1,723	25,635	-70,374	-23,682	-32,349	-42,825	169,953				39,70															
03:11:20.424	COM3_115200	2000-0-0 1:25:26.765	0,399	-0,786	1,697	24,475	-60,669	-22,034	-31,992	-43,819	170,233				39,63															
03:11:20.445	COM8_115200	2000-0-0 1:23:8.080	0,516	0,828	1,833	-31,433	-31,677	21,790	18,765	-40,941	33,376				37,71															
03:11:20.445	COM8_115200	2000-0-0 1:23:8.100	0,561	0,815	1,863	-29,053	-37,659	17,090	18,111	-41,413	33,552				37,80															
03:11:20.445	COM3_115200	2000-0-0 1:25:26.785	0,407	-0,843	1,648	23,621	-54,077	-20,081	-31,641	-44,643	170,447				39,63															
03:11:20.462	COM8_115200	2000-0-0 1:23:8.120	0,515	0,807	1,877	-23,499	-34,241	14,587	17,606	-41,902	33,635				37,87															
03:11:20.462	COM3_115200	2000-0-0 1:25:26.805	0,343	-0,883	1,653	20,996	-40,161	-16,174	-31,262	-45,236	170,568				39,70															
03:11:20.495	COM8_115200	2000-0-0 1:23:8.140	0,534	0,856	1,861	-14,709	-25,757	10,986	17,265	-42,193	33,723				37,74															
03:11:20.511	COM8_115200	2000-0-0 1:23:8.160	0,515	0,836	1,855	-5,981	-23,315	8,911	17,133	-42,402	33,766				37,80															
03:11:20.511	COM3_115200	2000-0-0 1:25:26.825	0,326	-0,905	1,688	16,846	-26,550	-15,198	-30,839	-45,538	170,513				39,57															
03:11:20.511	COM3_115200	2000-0-0 1:25:26.845	0,338	-0,897	1,722	9,949	-18,372	-15,015	-30,460	-45,665	170,327				39,51															
03:11:20.511	COM8_115200	2000-0-0 1:23:8.180	0,561	0,825	1,830	2,502	-18,616	7,446	17,183	-42,506	33,799				37,80															
03:11:20.511	COM3_115200	2000-0-0 1:25:26.865	0,362	-0,875	1,745	1,282	-2,625	-14,160	-30,125	-45,577	169,986				39,73															
03:11:20.534	COM8_115200	2000-0-0 1:23:8.200	0,565	0,815	1,821	10,132	-10,620	6,653	17,369	-42,479	33,860				37,83															
03:11:20.546	COM3_115200	2000-0-0 1:25:26.885	0,479	-0,847	1,793	-6,531	18,982	-14,221	-29,756	-45,132	169,365				39,57															
03:11:20.546	COM8_115200	2000-0-0 1:23:8.220	0,564	0,777	1,823	17,395	-6,531	6,165	17,682	-42,347	33,942				37,90															
03:11:20.561	COM3_115200	2000-0-0 1:25:26.905	0,529	-0,852	1,741	-14,648	29,114	-11,902	-29,416	-44,385	168,536				39,63															
03:11:20.578	COM8_115200	2000-0-0 1:23:8.240	0,515	0,753	1,833	23,376	-6,104	5,371	18,116	-42,177	34,036				37,80															
03:11:20.594	COM3_115200	2000-0-0 1:25:26.925	0,515	-0,853	1,721	-19,897	14,771	-5,981	-29,350	-43,715	167,926				39,60															
03:11:20.595	COM8_115200	2000-0-0 1:23:8.260	0,644	0,711	1,836	28,625	-5,920	6,409	18,649	-42,012	34,129				37,77															
03:11:20.595	COM3_115200	2000-0-0 1:25:26.945	0,415	-0,802	1,759	-24,048	-0,610	-3,662	-29,614	-43,336	167,662				39,44															
03:11:20.628	COM3_115200	2000-0-0 1:25:26.965	0,392	-0,735	1,802	-27,405	-4,456	-5,066	-30,020	-43,066	167,498				39,41															
03:11:20.628	COM8_115200	2000-0-0 1:23:8.280	0,507	0,765	1,810	27,344	0,122	9,766	19,149	-41,803	34,316				37,90															
03:11:20.644	COM3_115200	2000-0-0 1:25:26.985	0,495	-0,731	1,750	-31,433	1,038	-9,216	-30,410	-42,819	167,223				39,66															
03:11:20.651	COM8_115200	2000-0-0 1:23:8.300	0,510	0,744	1,821	29,968	2,380	9,399	19,605	-41,495	34,585				37,83															
03:11:20.664	COM8_115200	2000-0-0 1:23:8.320	0,506	0,693	1,847	28,259	-3,662	11,963	20,045	-41,303	34,838				37,80															
03:11:20.677	COM3_115200	2000-0-0 1:25:27.005	0,468	-0,837	1,653	-28,625	0,000	-9,949	-30,734	-42,534	166,855				39,54															
03:11:20.685	COM8_115200	2000-0-0 1:23:8.340	0,619	0,683	1,836	26,306	-5,127	18,494	20,402	-41,177	35,184				37,77															
03:11:20.689	COM3_115200	2000-0-0 1:25:27.025	0,423	-0,764	1,668	-24,048	-14,648	-12,939	-31,047	-42,457	166,602				39,54															
03:11:20.695	COM8_115200	2000-0-0 1:23:8.360	0,475	0,740	1,787	22,339	-6,409	22,522	20,583	-41,138	35,662				37,90															
03:11:20.695	COM3_115200	2000-0-0 1:25:27.045	0,405	-0,678	1,721	-23,621	-12,817	-16,907	-31,306	-42,523	166,344				39,38															
03:11:20.722	COM8_115200	2000-0-0 1:23:8.380	0,561	0,685	1,815	21,057	-8,606	23,376	20,709	-41,133	36,156				37,83															
03:11:20.722	COM3_115200	2000-0-0 1:25:27.065	0,488	-0,669	1,698	-25,391	-16,479	-19,836	-31,514	-42,621	165,992				39,66															
03:11:20.762	COM8_115200	2000-0-0 1:23:8.400	0,592	0,664	1,829	17,639	-11,169	27,283	20,737	-41,210	36,694				37,64															
03:11:20.762	COM8_115200	2000-0-0 1:23:8.420	0,611	0,689	1,787	18,921	-8,240	31,006	20,682	-41,281	37,348				37,80															
03:11:20.767	COM3_115200	2000-0-0 1:25:27.085	0,449	-0,719	1,643	-24,048	-15,869	-19,897	-31,723	-42,781	165,657				39,66															
03:11:20.767	COM3_115200	2000-0-0 1:25:27.105	0,407	-0,721	1,623	-25,146	-16,785	-19,165	-31,932	-42,913	165,322				39,70															
03:11:20.779	COM8_115200	2000-0-0 1:23:8.440	0,611	0,763	1,763	19,653	-9,033	30,701	20,616	-41,364	38,035				37,96															
03:11:20.779	COM3_115200	2000-0-0 1:25:27.125	0,395	-0,687	1,652	-26,428	-17,944	-21,606	-32,162	-43,105	165,009				39,57															
03:11:20.795	COM8_115200	2000-0-0 1:23:8.460	0,551	0,762	1,794	21,301	-8,301	28,687	20,616	-41,429	38,677				37,77															
03:11:20.795	COM3_115200	2000-0-0 1:25:27.145	0,489	-0,698	1,641	-31,860	-12,207	-23,315	-32,382	-43,231	164,559				39,70															
03:11:20.820	COM3_115200	2000-0-0 1:25:27.165	0,523	-0,720	1,562	-35,767	-5,005	-20,996	-32,646	-43,259	164,048				39,70															
03:11:20.820	COM8_115200	2000-0-0 1:23:8.480	0,586	0,679	1,792	25,818	-7,263	28,931	20,693	-41,468	39,309				37,80															
03:11:20.844	COM3_115200	2000-0-0 1:25:27.185	0,479	-0,741	1,530	-38,025	-4,700	-13,672	-33,025	-43,154	163,619				39,66															
03:11:20.844	COM8_115200	2000-0-0 1:23:8.500	0,653	0,648	1,749	30,701	-5,493	32,166	20,814	-41,512	39,996				37,80															
03:11:20.861	COM8_115200	2000-0-0 1:23:8.520	0,574	0,714	1,675	35,034	-0,854	33,508	20,962	-41,490	40,798				37,71															
03:11:20.861	COM3_115200	2000-0-0 1:25:27.205	0,397	-0,694	1,586	-42,725	-8,728	-11,780	-33,558	-43,083	163,334				39,60															
03:11:20.880	COM8_115200	2000-0-0 1:23:8.540	0,571	0,704	1,710	40,283	-2,930	32,104	21,220	-41,468	41,583				37,83															
03:11:20.884	COM3_115200	2000-0-0 1:25:27.225	0,475	-0,615	1,627	-49,500	-11,169	-12,634	-34,277	-43,061	163,158				39,60															
03:11:20.900	COM8_115200	2000-0-0 1:23:8.560	0,587	0,600	1,738	47,180	-2,258	33,264	21,599	-41,462	42,347				37,74															
03:11:20.911	COM3_115200	2000-0-0 1:25:27.245	0,466	-0,673	1,558	-55,664	-4,700	-8,423	-35,107	-42,946	162,938				39,66															
03:11:20.911	COM8_115200	2000-0-0 1:23:8.580	0,690	0,557	1,686	48,828	1,831	37,903	21,967	-41,435	43,226				37,71															
03:11:20.927	COM3_115200	2000-0-0 1:25:27.265	0,493	-0,624	1,472	-57,617	-7,751	-6,409	-36,002	-42,797	162,751				39,54															
03:11:20.928	COM8_115200	2000-0-0 1:23:8.600	0,629	0,647	1,644	45,105	3,784	41,138	22,187	-41,391	44,247				37,83															
03:11:20.945	COM3_115200	2000-0-0 1:25:27.285	0,395	-0,747	1,463	-58,472	-12,939	-6,775	-37,040	-42,715	162,724				39,54															
03:11:20.945	COM8_115200	2000-0-0 1:23:8.620	0,612	0,589	1,653	42,908	2,441	42,053	22,357	-41,364	45,291				37,90															
03:11:20.961	COM3_115200	2000-0-0 1:25:27.305	0,428	-0,611	1,548	-52,551	-18,982	-15,320	-37,919	-42,814	162,631				39,57															
03:11:20.978	COM8_115200	2000-0-0 1:23:8.640	0,584	0,534	1,704	37,781	-3,479	44,006	22,440	-41,440	46,318				37,74															
03:11:20.978	COM3_115200	2000-0-0 1:25:27.325	0,497	-0,588	1,530	-50,354	-15,503	-18,982	-38,639	-42,968	162,405				39,63															
03:11:20.995	COM8_115200	2000-0-0 1:23:8.660	0,753	0,480	1,667	29,480	-8,179	48,218	22,374	-41,649	47,379				37,87															
03:11:20.995	COM3_115200	2000-0-0 1:25:27.345	0,442	-0,629	1,395	-45,715	-19,653	-20,020	-39,271	-43,171	162,164				39,63															
03:11:21.016	COM8_115200	2000-0-0 1:23:8.680	0,654	0,548	1,592	15,503	-1,648	52,490	21,940	-41,852	48,576				37,71															
03:11:21.016	COM3_115200	2000-0-0 1:25:27.365	0,409	-0,753	1,364	-40,283	-21,790	-22,583	-39,809	-43,445	161,944				39,60															
03:11:21.028	COM8_115200	2000-0-0 1:23:8.700	0,548	0,591	1,618	7,629	-4,639	52,124	21,237	-42,012	49,856				37,74															
03:11:21.044	COM3_115200	2000-0-0 1:25:27.385	0,437	-0,684	1,396	-29,785	-22,949	-33,203	-40,084	-43,846	161,592				39,57															
03:11:21.053	COM8_115200	2000-0-0 1:23:8.720	0,720	0,478	1,667	2,441	-19,043	53,406	20,544	-42,363	51,010				37,83															
03:11:21.061	COM3_115200	2000-0-0 1:25:27.405	0,401	-0,613	1,418	-27,588	-23,621	-35,828	-40,172	-44,313	161,136				39,57															
03:11:21.078	COM3_115200	2000-0-0 1:25:27.425	0,477	-0,578	1,367	-26,001	-10,376	-38,757	-40,073	-44,725	160,455				39,76															
03:11:21.078	COM8_115200	2000-0-0 1:23:8.740	0,817	0,449	1,567	-2,380	-16,602	53,711	19,704	-42,819	52,158				37,80															
03:11:21.111	COM8_115200	2000-0-0 1:23:8.760	0,688	0,583	1,532	-3,906	-11,230	51,270	18,748	-43,143	53,377				37,83															
03:11:21.111	COM8_115200	2000-0-0 1:23:8.780	0,781	0,542	1,512	-2,563	-21,118	48,889	17,930	-43,478	54,487				37,80															
03:11:21.111	COM3_115200	2000-0-0 1:25:27.445	0,404	-0,616	1,356	-22,217	1,404	-44,495	-39,688	-44,956	159,456				39,63															
03:11:21.111	COM3_115200	2000-0-0 1:25:27.465	0,453	-0,607	1,325	-20,996	3,174	-43,518	-39,139	-45,115	158,297				39,57															
03:11:21.145	COM8_115200	2000-0-0 1:23:8.800	0,729	0,511	1,550	-0,061	-26,123	45,288	17,227	-44,017	55,448				37,74															
03:11:21.161	COM8_115200	2000-0-0 1:23:8.820	0,776	0,509	1,497	5,493	-20,508	45,471	16,617	-44,423	56,431				37,68															
03:11:21.161	COM3_115200	2000-0-0 1:25:27.485	0,482	-0,545	1,309	-19,165	2,930	-47,180	-38,551	-45,324	157,121				39,63															
03:11:21.161	COM3_115200	2000-0-0 1:25:27.505	0,534	-0,562	1,357	-25,635	13,367	-43,884	-37,991	-45,308	155,874				39,57															
03:11:21.194	COM8_115200	2000-0-0 1:23:8.840	0,762	0,497	1,438	13,184	-17,944	45,898	16,117	-44,786	57,448				37,80															
03:11:21.196	COM3_115200	2000-0-0 1:25:27.525	0,465	-0,573	1,305	-31,921	22,034	-40,955	-37,491	-45,225	154,561				39,60															
03:11:21.207	COM3_115200	2000-0-0 1:25:27.545	0,503	-0,509	1,354	-36,499	9,827	-36,438	-37,238	-45,110	153,457				39,54															
03:11:21.210	COM8_115200	2000-0-0 1:23:8.860	0,787	0,504	1,464	17,822	-19,592	44,556	15,743	-45,159	58,436				37,90															
03:11:21.217	COM8_115200	2000-0-0 1:23:8.880	0,787	0,482	1,468	23,621	-13,611	46,997	15,408	-45,467	59,518				37,71															
03:11:21.228	COM3_115200	2000-0-0 1:25:27.565	0,642	-0,495	1,329	-50,232	-9,766	-36,743	-37,397	-45,319	152,589				39,57															
03:11:21.228	COM8_115200	2000-0-0 1:23:8.900	0,789	0,484	1,503	27,954	-9,888	47,180	15,123	-45,676	60,672				37,83															
03:11:21.228	COM3_115200	2000-0-0 1:25:27.585	0,525	-0,553	1,188	-59,448	4,333	-27,954	-37,870	-45,445	151,880				39,60															
03:11:21.261	COM8_115200	2000-0-0 1:23:8.920	0,896	0,470	1,475	29,663	-5,310	49,438	14,843	-45,824	61,891				37,77															
03:11:21.261	COM3_115200	2000-0-0 1:25:27.605	0,526	-0,578	1,278	-57,251	-1,465	-31,128	-38,309	-45,472	151,089				39,54															
03:11:21.278	COM8_115200	2000-0-0 1:23:8.940	0,847	0,520	1,507	31,128	-5,066	47,302	14,584	-45,912	63,122				37,77															
03:11:21.295	COM3_115200	2000-0-0 1:25:27.625	0,595	-0,498	1,357	-61,523	-5,615	-24,109	-38,875	-45,538	150,491				39,66															
03:11:21.295	COM3_115200	2000-0-0 1:25:27.645	0,678	-0,495	1,303	-67,078	6,042	-27,832	-39,518	-45,544	149,826				39,63															
03:11:21.295	COM8_115200	2000-0-0 1:23:8.960	0,854	0,430	1,518	32,166	-4,944	45,044	14,420	-46,000	64,276				37,71															
03:11:21.311	COM3_115200	2000-0-0 1:25:27.665	0,596	-0,456	1,317	-54,382	9,216	-22,278	-39,957	-45,417	149,035				39,70															
03:11:21.311	COM8_115200	2000-0-0 1:23:8.980	0,830	0,411	1,567	28,198	-7,996	41,504	14,255	-46,110	65,330				37,74															
03:11:21.330	COM8_115200	2000-0-0 1:23:9.000	0,934	0,388	1,549	23,438	-13,000	41,382	14,035	-46,285	66,335				37,80															
03:11:21.344	COM3_115200	2000-0-0 1:25:27.685	0,783	-0,350	1,386	-52,551	-6,165	-21,729	-40,402	-45,406	148,464				39,51															
03:11:21.361	COM8_115200	2000-0-0 1:23:9.020	0,823	0,384	1,541	17,395	-10,132	39,063	13,733	-46,472	67,286				37,64															
03:11:21.361	COM3_115200	2000-0-0 1:25:27.705	0,750	-0,450	1,239	-45,654	-16,174	-18,738	-40,919	-45,571	148,151				39,66															
03:11:21.378	COM3_115200	2000-0-0 1:25:27.725	0,670	-0,465	1,273	-33,997	-36,987	-28,320	-41,402	-46,055	148,101				39,54															
03:11:21.378	COM8_115200	2000-0-0 1:23:9.040	0,856	0,365	1,568	13,306	-6,836	38,147	13,348	-46,566	68,209				37,71															
03:11:21.394	COM8_115200	2000-0-0 1:23:9.060	0,833	0,370	1,592	7,751	-15,930	35,278	12,881	-46,741	69,071				37,83															
03:11:21.394	COM3_115200	2000-0-0 1:25:27.745	0,624	-0,406	1,375	-26,733	-41,870	-22,827	-41,852	-46,752	148,260				39,54															
03:11:21.411	COM3_115200	2000-0-0 1:25:27.765	0,629	-0,359	1,326	-22,156	-20,874	-23,193	-42,067	-47,241	148,239				39,60															
03:11:21.428	COM8_115200	2000-0-0 1:23:9.080	0,879	0,306	1,600	9,338	-22,949	31,311	12,513	-47,054	69,785				37,74															
03:11:21.428	COM3_115200	2000-0-0 1:25:27.785	0,628	-0,367	1,310	-19,592	-26,306	-25,818	-42,067	-47,609	148,046				39,57															
03:11:21.444	COM8_115200	2000-0-0 1:23:9.100	0,815	0,281	1,611	11,230	-25,330	28,564	12,250	-47,433	70,378				37,71															
03:11:21.460	COM8_115200	2000-0-0 1:23:9.120	0,821	0,271	1,552	16,907	-25,818	28,687	12,090	-47,807	70,961				37,74															
03:11:21.461	COM3_115200	2000-0-0 1:25:27.805	0,572	-0,323	1,284	-18,860	-27,466	-16,479	-42,182	-48,032	148,090				39,70															
03:11:21.511	COM8_115200	2000-0-0 1:23:9.140	0,809	0,287	1,525	22,522	-30,212	26,978	12,063	-48,241	71,488				37,80															
03:11:21.511	COM3_115200	2000-0-0 1:25:27.825	0,532	-0,351	1,283	-20,386	-31,128	-11,230	-42,451	-48,406	148,260				39,63															
03:11:21.511	COM3_115200	2000-0-0 1:25:27.845	0,563	-0,339	1,287	-26,428	-29,236	-13,550	-42,770	-48,724	148,381				39,60															
03:11:21.511	COM3_115200	2000-0-0 1:25:27.865	0,543	-0,287	1,206	-35,339	-27,588	-9,399	-43,259	-48,999	148,568				39,57															
03:11:21.511	COM8_115200	2000-0-0 1:23:9.160	0,788	0,269	1,521	29,846	-30,029	26,672	12,184	-48,691	71,993				37,80															
03:11:21.528	COM8_115200	2000-0-0 1:23:9.180	0,762	0,232	1,506	37,415	-28,198	27,100	12,420	-49,120	72,510				37,80															
03:11:21.528	COM8_115200	2000-0-0 1:23:9.200	0,797	0,216	1,469	45,227	-23,743	28,320	12,777	-49,482	73,081				37,74															
03:11:21.544	COM3_115200	2000-0-0 1:25:27.885	0,506	-0,294	1,215	-40,955	-26,123	-2,747	-43,973	-49,164	148,892				39,66															
03:11:21.560	COM8_115200	2000-0-0 1:23:9.220	0,759	0,192	1,438	53,284	-13,428	29,236	13,211	-49,702	73,729				37,83															
03:11:21.561	COM3_115200	2000-0-0 1:25:27.905	0,529	-0,302	1,257	-46,509	-23,132	-3,418	-44,775	-49,279	149,172				39,66															
03:11:21.578	COM8_115200	2000-0-0 1:23:9.240	0,788	0,171	1,419	58,777	-8,362	30,640	13,678	-49,763	74,482				37,77															
03:11:21.578	COM3_115200	2000-0-0 1:25:27.925	0,481	-0,286	1,233	-51,819	-14,404	-3,662	-45,582	-49,301	149,337				39,76															
03:11:21.595	COM8_115200	2000-0-0 1:23:9.260	0,766	0,146	1,415	60,364	-9,155	33,813	14,134	-49,828	75,311				37,77															
03:11:21.595	COM3_115200	2000-0-0 1:25:27.945	0,483	-0,268	1,210	-54,749	3,967	-2,930	-46,176	-49,092	149,145				39,47															
03:11:21.611	COM8_115200	2000-0-0 1:23:9.280	0,800	0,124	1,418	62,195	-5,188	35,889	14,551	-49,878	76,229				37,80															
03:11:21.611	COM3_115200	2000-0-0 1:25:27.965	0,495	-0,265	1,179	-56,091	4,822	-8,911	-46,604	-48,818	148,683				39,60															
03:11:21.645	COM3_115200	2000-0-0 1:25:27.985	0,494	-0,212	1,176	-57,556	5,432	-10,437	-46,989	-48,604	148,167				39,57															
03:11:21.645	COM8_115200	2000-0-0 1:23:9.300	0,820	0,105	1,396	61,523	-1,160	37,476	14,881	-49,861	77,234				37,71															
03:11:21.661	COM3_115200	2000-0-0 1:25:28.005	0,484	-0,176	1,174	-58,472	4,822	-14,526	-47,351	-48,450	147,618				39,57															
03:11:21.661	COM8_115200	2000-0-0 1:23:9.320	0,798	0,087	1,386	58,716	2,808	37,781	15,128	-49,763	78,289				37,74															
03:11:21.679	COM8_115200	2000-0-0 1:23:9.340	0,843	0,078	1,350	54,932	4,517	39,856	15,244	-49,631	79,404				37,77															
03:11:21.688	COM3_115200	2000-0-0 1:25:28.025	0,542	-0,164	1,139	-57,190	2,075	-17,456	-47,675	-48,351	147,025				39,60															
03:11:21.705	COM8_115200	2000-0-0 1:23:9.360	0,808	0,065	1,356	49,927	2,502	39,001	15,266	-49,526	80,519				37,87															
03:11:21.713	COM3_115200	2000-0-0 1:25:28.045	0,522	-0,155	1,126	-57,007	1,892	-16,479	-48,016	-48,323	146,459				39,51															
03:11:21.723	COM3_115200	2000-0-0 1:25:28.065	0,514	-0,143	1,143	-53,650	1,404	-19,165	-48,285	-48,312	145,898				39,63															
03:11:21.724	COM8_115200	2000-0-0 1:23:9.380	0,822	0,032	1,371	41,443	0,061	40,283	15,145	-49,471	81,623				37,77															
03:11:21.728	COM3_115200	2000-0-0 1:25:28.085	0,528	-0,134	1,118	-50,232	1,648	-19,958	-48,406	-48,290	145,245				39,70															
03:11:21.728	COM8_115200	2000-0-0 1:23:9.400	0,814	-0,005	1,370	36,682	-2,686	40,405	14,875	-49,471	82,733				37,68															
03:11:21.778	COM8_115200	2000-0-0 1:23:9.420	0,814	0,004	1,341	30,029	-6,287	39,856	14,529	-49,532	83,793				37,74															
03:11:21.778	COM8_115200	2000-0-0 1:23:9.440	0,775	-0,011	1,342	26,367	-4,944	39,185	14,084	-49,614	84,836				37,87															
03:11:21.778	COM3_115200	2000-0-0 1:25:28.105	0,524	-0,119	1,097	-46,814	-1,099	-25,085	-48,466	-48,378	144,608				39,73															
03:11:21.778	COM3_115200	2000-0-0 1:25:28.125	0,582	-0,091	1,090	-41,077	-7,080	-26,001	-48,455	-48,549	144,031				39,73															
03:11:21.794	COM8_115200	2000-0-0 1:23:9.460	0,792	-0,040	1,316	23,010	-5,676	39,917	13,563	-49,653	85,897				37,74															
03:11:21.811	COM8_115200	2000-0-0 1:23:9.480	0,792	-0,099	1,338	18,616	-14,465	40,588	12,953	-49,834	86,951				37,74															
03:11:21.811	COM3_115200	2000-0-0 1:25:28.145	0,527	-0,074	1,029	-36,316	-10,254	-28,748	-48,378	-48,823	143,503				39,51															
03:11:21.811	COM3_115200	2000-0-0 1:25:28.165	0,611	-0,054	1,077	-30,396	-12,878	-29,724	-48,192	-49,142	142,982				39,57															
03:11:21.844	COM3_115200	2000-0-0 1:25:28.185	0,655	-0,053	1,013	-24,170	-4,883	-28,320	-47,823	-49,433	142,399				39,54															
03:11:21.860	COM8_115200	2000-0-0 1:23:9.500	0,842	-0,108	1,344	12,756	-16,113	41,260	12,244	-50,076	88,000				37,74															
03:11:21.861	COM8_115200	2000-0-0 1:23:9.520	0,833	-0,100	1,351	9,277	-9,094	40,527	11,398	-50,251	89,077				37,83															
03:11:21.878	COM3_115200	2000-0-0 1:25:28.205	0,625	-0,064	0,941	-13,611	-1,160	-27,649	-47,181	-49,620	141,702				39,57															
03:11:21.878	COM3_115200	2000-0-0 1:25:28.225	0,591	-0,045	0,998	-4,089	-12,573	-29,236	-46,412	-49,911	141,092				39,66															
03:11:21.878	COM8_115200	2000-0-0 1:23:9.540	0,792	-0,149	1,343	7,507	-9,827	36,865	10,541	-50,317	90,115				37,80															
03:11:21.894	COM3_115200	2000-0-0 1:25:28.245	0,661	-0,023	1,119	0,854	-20,813	-24,841	-45,714	-50,312	140,762				39,66															
03:11:21.894	COM8_115200	2000-0-0 1:23:9.560	0,862	-0,157	1,362	2,075	-22,461	34,119	9,717	-50,532	91,027				37,87															
03:11:21.911	COM3_115200	2000-0-0 1:25:28.265	0,669	-0,077	1,021	8,240	-19,958	-22,827	-45,005	-50,724	140,559				39,60															
03:11:21.911	COM8_115200	2000-0-0 1:23:9.580	0,843	-0,160	1,355	-0,427	-25,208	28,503	8,937	-50,889	91,752				37,80															
03:11:21.929	COM8_115200	2000-0-0 1:23:9.600	0,844	-0,129	1,303	-2,136	-28,198	23,926	8,240	-51,240	92,340				37,80															
03:11:21.944	COM3_115200	2000-0-0 1:25:28.285	0,578	-0,054	1,023	18,555	-14,893	-16,907	-44,088	-50,999	140,323				39,66															
03:11:21.961	COM3_115200	2000-0-0 1:25:28.305	0,644	-0,035	1,020	23,132	-24,109	-14,893	-43,193	-51,273	140,284				39,66															
03:11:21.961	COM8_115200	2000-0-0 1:23:9.620	0,838	-0,150	1,279	-5,737	-35,645	19,653	7,603	-51,702	92,769				37,74															
03:11:21.977	COM3_115200	2000-0-0 1:25:28.325	0,475	-0,024	1,084	19,836	-18,860	-12,207	-42,347	-51,564	140,306				39,60															
03:11:21.993	COM8_115200	2000-0-0 1:23:9.640	0,833	-0,144	1,352	-6,042	-31,921	14,648	7,037	-52,169	93,060				37,80															
03:11:21.994	COM8_115200	2000-0-0 1:23:9.660	0,840	-0,150	1,330	-7,507	-28,198	9,277	6,537	-52,531	93,235				38,02															
03:11:21.994	COM3_115200	2000-0-0 1:25:28.345	0,472	-0,007	1,188	21,423	-7,996	-5,554	-41,369	-51,597	140,142				39,54															
03:11:22.027	COM3_115200	2000-0-0 1:25:28.365	0,534	-0,046	1,149	17,395	1,160	-0,061	-40,463	-51,416	139,966				39,47															
03:11:22.028	COM8_115200	2000-0-0 1:23:9.680	0,814	-0,144	1,317	-7,141	-22,827	2,380	6,207	-52,784	93,214				37,77															
03:11:22.028	COM8_115200	2000-0-0 1:23:9.700	0,821	-0,114	1,276	-5,554	-21,545	-3,296	6,048	-52,949	93,021				37,80															
03:11:22.044	COM3_115200	2000-0-0 1:25:28.385	0,549	-0,042	1,124	11,597	6,042	-0,244	-39,523	-51,097	139,631				39,70															
03:11:22.061	COM8_115200	2000-0-0 1:23:9.720	0,828	-0,098	1,269	-5,066	-21,301	-8,484	6,059	-53,119	92,626				37,80															
03:11:22.061	COM3_115200	2000-0-0 1:25:28.405	0,551	-0,093	1,088	7,568	9,460	5,310	-38,721	-50,685	139,351				39,63															
03:11:22.078	COM3_115200	2000-0-0 1:25:28.425	0,467	-0,087	1,087	6,531	8,301	7,446	-38,024	-50,191	139,147				39,63															
03:11:22.078	COM8_115200	2000-0-0 1:23:9.740	0,833	-0,100	1,289	-4,211	-15,747	-12,939	6,180	-53,196	92,115				37,71															
03:11:22.094	COM3_115200	2000-0-0 1:25:28.445	0,554	-0,068	1,133	5,371	-2,502	8,118	-37,491	-49,779	139,103				39,60															
03:11:22.110	COM8_115200	2000-0-0 1:23:9.760	0,840	-0,125	1,318	-3,723	-8,972	-17,700	6,422	-53,141	91,467				37,71															
03:11:22.127	COM3_115200	2000-0-0 1:25:28.465	0,604	-0,044	1,133	1,648	-3,418	8,240	-37,172	-49,504	139,246				39,54															
03:11:22.128	COM8_115200	2000-0-0 1:23:9.780	0,804	-0,133	1,316	-5,615	-1,343	-23,010	6,751	-52,916	90,692				37,80															
03:11:22.128	COM3_115200	2000-0-0 1:25:28.485	0,547	-0,062	1,072	3,662	3,113	12,817	-36,815	-49,092	139,345				39,47															
03:11:22.146	COM8_115200	2000-0-0 1:23:9.800	0,768	-0,112	1,331	-4,700	3,174	-28,076	7,185	-52,575	89,764				37,77															
03:11:22.160	COM8_115200	2000-0-0 1:23:9.820	0,792	-0,076	1,298	-5,249	2,808	-31,067	7,685	-52,185	88,753				37,87															
03:11:22.161	COM3_115200	2000-0-0 1:25:28.505	0,529	-0,074	1,121	3,174	5,859	17,944	-36,491	-48,582	139,504				39,60															
03:11:22.177	COM8_115200	2000-0-0 1:23:9.840	0,747	-0,104	1,317	-5,493	6,531	-34,607	8,234	-51,751	87,660				37,74															
03:11:22.177	COM3_115200	2000-0-0 1:25:28.525	0,587	-0,108	1,126	1,282	8,301	18,494	-36,222	-47,983	139,713				39,63															
03:11:22.194	COM3_115200	2000-0-0 1:25:28.545	0,662	-0,063	1,094	6,409	12,207	20,752	-35,887	-47,340	139,883				39,63															
03:11:22.211	COM8_115200	2000-0-0 1:23:9.860	0,815	-0,062	1,331	-9,827	8,606	-34,424	8,734	-51,257	86,545				37,77															
03:11:22.228	COM3_115200	2000-0-0 1:25:28.565	0,591	-0,110	1,007	9,766	13,489	27,283	-35,541	-46,609	140,125				39,51															
03:11:22.228	COM8_115200	2000-0-0 1:23:9.880	0,788	-0,068	1,331	-10,010	13,123	-37,659	9,212	-50,685	85,413				37,80															
03:11:22.244	COM3_115200	2000-0-0 1:25:28.585	0,581	-0,118	1,048	17,456	4,272	28,320	-35,211	-45,956	140,565				39,70															
03:11:22.260	COM3_115200	2000-0-0 1:25:28.605	0,613	-0,117	1,078	18,494	1,587	30,884	-34,909	-45,379	141,147				39,54															
03:11:22.261	COM8_115200	2000-0-0 1:23:9.900	0,806	-0,024	1,317	-10,498	16,785	-38,757	9,684	-50,004	84,276				37,74															
03:11:22.261	COM8_115200	2000-0-0 1:23:9.920	0,797	-0,035	1,344	-12,817	12,695	-40,588	10,151	-49,367	83,084				37,74															
03:11:22.277	COM8_115200	2000-0-0 1:23:9.940	0,837	0,012	1,345	-16,602	9,888	-41,260	10,558	-48,785	81,887				37,74															
03:11:22.277	COM3_115200	2000-0-0 1:25:28.625	0,587	-0,146	1,042	24,719	5,859	32,959	-34,547	-44,753	141,740				39,57															
03:11:22.294	COM3_115200	2000-0-0 1:25:28.645	0,558	-0,134	1,070	31,555	6,348	35,706	-34,074	-44,077	142,377				39,57															
03:11:22.294	COM8_115200	2000-0-0 1:23:9.960	0,783	0,044	1,346	-20,569	12,756	-41,870	10,887	-48,192	80,684				37,74															
03:11:22.311	COM8_115200	2000-0-0 1:23:9.980	0,806	0,062	1,334	-28,992	6,714	-41,626	11,085	-47,642	79,481				37,77															
03:11:22.328	COM3_115200	2000-0-0 1:25:28.665	0,559	-0,143	1,074	35,828	3,357	37,720	-33,558	-43,407	143,091				39,47															
03:11:22.344	COM8_115200	2000-0-0 1:23:10.000	0,832	0,027	1,346	-41,565	-0,793	-42,297	11,096	-47,252	78,223				37,87															
03:11:22.344	COM3_115200	2000-0-0 1:25:28.685	0,603	-0,149	1,068	40,466	0,061	38,269	-33,003	-42,792	143,882				39,73															
03:11:22.361	COM8_115200	2000-0-0 1:23:10.020	0,760	0,055	1,353	-54,932	-4,089	-41,565	10,838	-46,956	76,976				37,74															
03:11:22.362	COM3_115200	2000-0-0 1:25:28.705	0,537	-0,173	1,071	47,791	-0,366	39,917	-32,377	-42,209	144,728				39,63															
03:11:22.377	COM3_115200	2000-0-0 1:25:28.725	0,472	-0,201	1,078	55,420	-2,319	38,940	-31,602	-41,649	145,596				39,60															
03:11:22.377	COM8_115200	2000-0-0 1:23:10.040	0,840	0,109	1,336	-63,110	-2,197	-41,565	10,382	-46,659	75,745				37,74															
03:11:22.411	COM8_115200	2000-0-0 1:23:10.060	0,792	0,102	1,262	-69,397	-2,380	-42,236	9,794	-46,395	74,493				37,77															
03:11:22.411	COM8_115200	2000-0-0 1:23:10.080	0,821	0,133	1,260	-67,200	0,183	-43,640	9,240	-46,071	73,218				37,80															
03:11:22.427	COM3_115200	2000-0-0 1:25:28.745	0,533	-0,228	1,149	60,120	-13,611	33,447	-30,751	-41,265	146,492				39,44															
03:11:22.427	COM3_115200	2000-0-0 1:25:28.765	0,573	-0,246	1,171	61,951	-14,648	30,090	-29,850	-41,039	147,360				39,60															
03:11:22.427	COM8_115200	2000-0-0 1:23:10.100	0,778	0,151	1,250	-63,049	0,061	-43,945	8,762	-45,764	71,949				37,64															
03:11:22.444	COM3_115200	2000-0-0 1:25:28.785	0,617	-0,269	1,109	64,453	2,625	30,579	-28,806	-40,666	148,068				39,57															
03:11:22.461	COM3_115200	2000-0-0 1:25:28.805	0,555	-0,311	1,057	63,782	20,813	33,203	-27,658	-39,957	148,601				39,63															
03:11:22.461	COM8_115200	2000-0-0 1:23:10.120	0,774	0,165	1,291	-55,420	3,723	-44,739	8,427	-45,412	70,675				37,80															
03:11:22.477	COM3_115200	2000-0-0 1:25:28.825	0,371	-0,302	1,067	61,035	41,016	39,490	-26,494	-38,870	149,024				39,51															
03:11:22.477	COM8_115200	2000-0-0 1:23:10.140	0,770	0,212	1,311	-48,523	8,057	-44,922	8,229	-45,011	69,406				37,90															
03:11:22.494	COM8_115200	2000-0-0 1:23:10.160	0,753	0,254	1,321	-38,391	15,930	-45,532	8,207	-44,445	68,170				37,71															
03:11:22.494	COM3_115200	2000-0-0 1:25:28.845	0,326	-0,328	1,225	50,293	22,522	44,006	-25,587	-37,766	149,617				39,57															
03:11:22.511	COM8_115200	2000-0-0 1:23:10.180	0,752	0,277	1,324	-30,640	14,709	-45,349	8,339	-43,857	66,951				37,77															
03:11:22.527	COM3_115200	2000-0-0 1:25:28.865	0,455	-0,338	1,317	35,461	0,061	39,490	-25,120	-37,145	150,458				39,60															
03:11:22.543	COM3_115200	2000-0-0 1:25:28.885	0,573	-0,370	1,232	26,672	13,245	40,283	-24,873	-36,519	151,260				39,57															
03:11:22.544	COM8_115200	2000-0-0 1:23:10.200	0,731	0,292	1,340	-22,949	14,160	-45,715	8,635	-43,281	65,731				37,80															
03:11:22.561	COM8_115200	2000-0-0 1:23:10.220	0,803	0,279	1,382	-17,761	12,451	-47,180	9,058	-42,731	64,506				37,83															
03:11:22.561	COM3_115200	2000-0-0 1:25:28.905	0,503	-0,447	1,167	27,405	30,151	46,753	-24,642	-35,513	151,974				39,47															
03:11:22.593	COM8_115200	2000-0-0 1:23:10.240	0,750	0,288	1,370	-16,113	14,709	-49,438	9,558	-42,149	63,248				37,80															
03:11:22.594	COM3_115200	2000-0-0 1:25:28.925	0,479	-0,433	1,170	29,175	30,029	51,636	-24,390	-34,404	152,710				39,66															
03:11:22.594	COM3_115200	2000-0-0 1:25:28.945	0,487	-0,424	1,263	27,222	18,799	46,143	-24,203	-33,464	153,534				39,60															
03:11:22.610	COM8_115200	2000-0-0 1:23:10.260	0,704	0,308	1,360	-15,930	15,930	-50,598	10,080	-41,523	61,974				37,74															
03:11:22.610	COM8_115200	2000-0-0 1:23:10.280	0,724	0,357	1,379	-17,639	12,085	-50,903	10,580	-40,930	60,688				37,80															
03:11:22.610	COM3_115200	2000-0-0 1:25:28.965	0,531	-0,398	1,292	27,344	12,573	46,753	-24,016	-32,668	154,385				39,63															
03:11:22.643	COM3_115200	2000-0-0 1:25:28.985	0,599	-0,457	1,240	29,358	16,785	45,471	-23,824	-31,910	155,237				39,60															
03:11:22.645	COM8_115200	2000-0-0 1:23:10.300	0,735	0,349	1,382	-22,339	7,751	-51,147	11,008	-40,419	59,403				37,64															
03:11:22.645	COM3_115200	2000-0-0 1:25:29.005	0,447	-0,508	1,219	33,508	26,245	45,227	-23,505	-31,009	155,984				39,57															
03:11:22.660	COM8_115200	2000-0-0 1:23:10.320	0,701	0,329	1,412	-25,940	9,644	-51,270	11,338	-39,913	58,112				37,93															
03:11:22.677	COM3_115200	2000-0-0 1:25:29.025	0,360	-0,482	1,282	39,429	24,658	45,837	-23,066	-30,031	156,720				39,54															
03:11:22.677	COM8_115200	2000-0-0 1:23:10.340	0,640	0,374	1,398	-30,457	10,498	-50,781	11,569	-39,359	56,860				37,83															
03:11:22.694	COM3_115200	2000-0-0 1:25:29.045	0,297	-0,429	1,407	39,063	2,747	38,635	-22,626	-29,454	157,511				39,66															
03:11:22.723	COM8_115200	2000-0-0 1:23:10.360	0,705	0,378	1,445	-32,410	8,850	-49,255	11,717	-38,826	55,640				37,87															
03:11:22.724	COM8_115200	2000-0-0 1:23:10.380	0,687	0,400	1,445	-35,889	7,385	-48,523	11,772	-38,331	54,454				37,71															
03:11:22.730	COM3_115200	2000-0-0 1:25:29.065	0,502	-0,416	1,400	35,645	-4,211	32,837	-22,203	-29,108	158,269				39,54															
03:11:22.741	COM8_115200	2000-0-0 1:23:10.400	0,652	0,416	1,422	-36,926	8,179	-48,401	11,783	-37,848	53,273				37,68															
03:11:22.752	COM3_115200	2000-0-0 1:25:29.085	0,513	-0,524	1,236	30,396	12,390	34,912	-21,852	-28,647	158,923				39,51															
03:11:22.758	COM3_115200	2000-0-0 1:25:29.105	0,390	-0,636	1,233	38,696	12,024	31,860	-21,418	-28,043	159,516				39,66															
03:11:22.760	COM8_115200	2000-0-0 1:23:10.420	0,576	0,425	1,442	-36,743	8,911	-47,668	11,783	-37,354	52,119				37,68															
03:11:22.777	COM3_115200	2000-0-0 1:25:29.125	0,363	-0,555	1,362	44,861	2,563	28,381	-20,814	-27,587	160,087				39,60															
03:11:22.777	COM8_115200	2000-0-0 1:23:10.440	0,708	0,439	1,480	-37,170	4,700	-46,143	11,755	-36,903	50,988				37,71															
03:11:22.795	COM3_115200	2000-0-0 1:25:29.145	0,460	-0,494	1,372	40,100	-1,831	22,217	-20,209	-27,318	160,637				39,66															
03:11:22.795	COM8_115200	2000-0-0 1:23:10.460	0,649	0,473	1,438	-40,100	4,150	-44,678	11,651	-36,480	49,922				37,74															
03:11:22.810	COM8_115200	2000-0-0 1:23:10.480	0,697	0,487	1,435	-37,903	8,728	-44,678	11,563	-36,019	48,862				37,74															
03:11:22.827	COM3_115200	2000-0-0 1:25:29.165	0,479	-0,607	1,334	37,476	2,136	24,780	-19,709	-26,993	161,158				39,60															
03:11:22.827	COM3_115200	2000-0-0 1:25:29.185	0,457	-0,623	1,287	40,771	8,606	25,146	-19,144	-26,625	161,636				39,51															
03:11:22.844	COM8_115200	2000-0-0 1:23:10.500	0,679	0,538	1,470	-41,138	6,897	-44,861	11,442	-35,557	47,818				37,87															
03:11:22.844	COM3_115200	2000-0-0 1:25:29.205	0,439	-0,661	1,318	44,312	1,587	24,353	-18,567	-26,263	162,158				39,57															
03:11:22.860	COM8_115200	2000-0-0 1:23:10.520	0,565	0,537	1,506	-38,147	10,376	-44,678	11,321	-35,041	46,791				37,90															
03:11:22.877	COM3_115200	2000-0-0 1:25:29.225	0,465	-0,625	1,367	45,532	-1,770	23,254	-17,935	-26,038	162,658				39,47															
03:11:22.877	COM8_115200	2000-0-0 1:23:10.540	0,724	0,565	1,524	-38,330	2,014	-44,617	11,234	-34,640	45,742				37,77															
03:11:22.894	COM3_115200	2000-0-0 1:25:29.245	0,421	-0,688	1,359	47,241	3,113	25,269	-17,309	-25,757	163,196				39,54															
03:11:22.910	COM8_115200	2000-0-0 1:23:10.560	0,675	0,613	1,500	-39,429	1,770	-45,044	11,135	-34,305	44,681				37,77															
03:11:22.910	COM3_115200	2000-0-0 1:25:29.265	0,458	-0,626	1,413	50,110	5,676	22,827	-16,606	-25,433	163,674				39,57															
03:11:22.927	COM8_115200	2000-0-0 1:23:10.580	0,571	0,618	1,499	-36,743	4,028	-47,180	11,091	-33,915	43,605				37,80															
03:11:22.927	COM3_115200	2000-0-0 1:25:29.285	0,320	-0,655	1,413	47,424	10,010	27,710	-15,947	-24,999	164,180				39,73															
03:11:22.960	COM8_115200	2000-0-0 1:23:10.600	0,528	0,600	1,553	-32,593	-0,305	-47,485	11,124	-33,563	42,490				37,80															
03:11:22.960	COM8_115200	2000-0-0 1:23:10.620	0,587	0,607	1,521	-31,799	-0,549	-46,143	11,217	-33,272	41,391				37,87															
03:11:22.960	COM3_115200	2000-0-0 1:25:29.305	0,323	-0,577	1,491	45,044	5,249	24,597	-15,298	-24,631	164,691				39,57															
03:11:22.977	COM3_115200	2000-0-0 1:25:29.325	0,535	-0,582	1,466	35,950	-7,568	26,367	-14,859	-24,428	165,311				39,60															
03:11:22.977	COM8_115200	2000-0-0 1:23:10.640	0,557	0,659	1,514	-29,175	3,418	-46,448	11,305	-32,932	40,309				37,77															
03:11:22.994	COM8_115200	2000-0-0 1:23:10.660	0,516	0,699	1,505	-28,870	10,315	-46,204	11,415	-32,437	39,282				37,77															
03:11:22.994	COM3_115200	2000-0-0 1:25:29.345	0,448	-0,743	1,451	36,072	-13,245	26,672	-14,551	-24,357	165,976				39,57															
03:11:23.010	COM3_115200	2000-0-0 1:25:29.365	0,345	-0,738	1,470	39,001	-8,789	32,043	-14,189	-24,285	166,663				39,66															
03:11:23.010	COM8_115200	2000-0-0 1:23:10.680	0,551	0,680	1,552	-27,832	14,221	-43,884	11,503	-31,849	38,309				37,74															
03:11:23.060	COM8_115200	2000-0-0 1:23:10.700	0,607	0,674	1,629	-29,114	13,000	-41,382	11,536	-31,267	37,397				37,71															
03:11:23.060	COM8_115200	2000-0-0 1:23:10.720	0,627	0,651	1,607	-28,809	17,334	-40,894	11,536	-30,641	36,552				37,74															
03:11:23.060	COM3_115200	2000-0-0 1:25:29.385	0,355	-0,706	1,471	36,560	-3,540	31,128	-13,837	-24,159	167,338				39,57															
03:11:23.060	COM3_115200	2000-0-0 1:25:29.405	0,364	-0,646	1,478	35,950	6,775	27,344	-13,480	-23,934	167,943				39,41															
03:11:23.077	COM3_115200	2000-0-0 1:25:29.425	0,402	-0,641	1,492	36,743	15,686	22,583	-13,101	-23,406	168,437				39,70															
03:11:23.077	COM8_115200	2000-0-0 1:23:10.740	0,661	0,663	1,657	-26,367	16,785	-43,579	11,569	-30,015	35,684				37,80															
03:11:23.094	COM3_115200	2000-0-0 1:25:29.445	0,446	-0,776	1,458	32,654	8,545	26,611	-12,744	-22,901	168,904				39,57															
03:11:23.094	COM8_115200	2000-0-0 1:23:10.760	0,504	0,681	1,711	-27,710	12,573	-45,654	11,613	-29,432	34,750				37,61															
03:11:23.110	COM3_115200	2000-0-0 1:25:29.465	0,271	-0,840	1,423	36,316	10,254	25,757	-12,371	-22,566	169,409				39,51															
03:11:23.128	COM8_115200	2000-0-0 1:23:10.780	0,545	0,665	1,713	-26,367	5,737	-45,593	11,684	-28,932	33,805				37,83															
03:11:23.143	COM8_115200	2000-0-0 1:23:10.800	0,511	0,727	1,683	-27,588	0,244	-46,082	11,739	-28,625	32,800				37,71															
03:11:23.144	COM3_115200	2000-0-0 1:25:29.485	0,385	-0,801	1,618	45,105	9,094	26,611	-11,898	-22,165	169,975				39,60															
03:11:23.159	COM3_115200	2000-0-0 1:25:29.505	0,389	-0,746	1,516	31,128	14,404	23,438	-11,459	-21,720	170,464				39,54															
03:11:23.160	COM8_115200	2000-0-0 1:23:10.820	0,564	0,776	1,664	-25,818	2,991	-50,659	11,843	-28,257	31,745				37,80															
03:11:23.177	COM3_115200	2000-0-0 1:25:29.525	0,488	-0,824	1,528	36,499	8,301	32,166	-11,124	-21,143	171,090				39,51															
03:11:23.177	COM8_115200	2000-0-0 1:23:10.840	0,598	0,792	1,680	-27,954	5,310	-51,819	11,970	-27,817	30,652				37,77															
03:11:23.194	COM3_115200	2000-0-0 1:25:29.545	0,421	-0,949	1,514	32,593	5,188	43,823	-10,920	-20,792	171,865				39,54															
03:11:23.227	COM3_115200	2000-0-0 1:25:29.565	0,239	-0,898	1,580	36,621	-2,441	54,688	-10,767	-20,539	172,925				39,57															
03:11:23.243	COM8_115200	2000-0-0 1:23:10.860	0,496	0,825	1,645	-28,259	13,489	-52,307	12,057	-27,279	29,575				37,77															
03:11:23.243	COM8_115200	2000-0-0 1:23:10.880	0,346	0,851	1,686	-25,818	16,907	-57,495	12,178	-26,636	28,449				37,90															
03:11:23.243	COM8_115200	2000-0-0 1:23:10.900	0,510	0,752	1,710	-22,827	17,761	-59,937	12,393	-25,933	27,268				37,93															
03:11:23.260	COM3_115200	2000-0-0 1:25:29.585	0,363	-0,809	1,713	38,757	4,333	53,040	-10,607	-20,171	174,062				39,66															
03:11:23.260	COM3_115200	2000-0-0 1:25:29.605	0,351	-0,789	1,549	31,799	10,864	57,373	-10,470	-19,704	175,133				39,60															
03:11:23.261	COM8_115200	2000-0-0 1:23:10.920	0,479	0,881	1,675	-26,672	17,212	-61,218	12,563	-25,203	26,076				37,61															
03:11:23.277	COM3_115200	2000-0-0 1:25:29.625	0,091	-0,887	1,593	35,034	4,883	64,941	-10,426	-19,254	176,396				39,57															
03:11:23.277	COM8_115200	2000-0-0 1:23:10.940	0,268	0,860	1,702	-22,156	24,841	-65,247	12,777	-24,384	24,840				37,87															
03:11:23.293	COM8_115200	2000-0-0 1:23:10.960	0,417	0,768	1,733	-18,494	24,292	-67,444	13,068	-23,505	23,560				37,80															
03:11:23.293	COM3_115200	2000-0-0 1:25:29.645	0,048	-0,702	1,727	36,194	-1,770	66,650	-10,377	-18,902	177,792				39,57															
03:11:23.344	COM8_115200	2000-0-0 1:23:10.980	0,351	0,800	1,733	-19,226	28,442	-63,232	13,310	-22,588	22,363				37,71															
03:11:23.344	COM3_115200	2000-0-0 1:25:29.665	0,238	-0,645	1,667	27,649	12,939	55,603	-10,316	-18,452	179,006				39,54															
03:11:23.360	COM3_115200	2000-0-0 1:25:29.685	0,271	-0,823	1,530	26,062	14,465	51,575	-10,316	-17,847	-179,962				39,41															
03:11:23.360	COM3_115200	2000-0-0 1:25:29.705	0,043	-0,802	1,553	27,710	12,024	53,589	-10,283	-17,287	-178,945				39,70															
03:11:23.360	COM8_115200	2000-0-0 1:23:11.000	0,320	0,765	1,745	-13,855	24,231	-65,430	13,590	-21,671	21,171				37,55															
03:11:23.377	COM3_115200	2000-0-0 1:25:29.725	0,155	-0,671	1,661	28,992	5,981	45,166	-10,206	-16,880	-177,935				39,70															
03:11:23.377	COM8_115200	2000-0-0 1:23:11.020	0,315	0,758	1,786	-13,611	3,296	-59,082	13,898	-21,055	19,990				37,77															
03:11:23.377	COM8_115200	2000-0-0 1:23:11.040	0,384	0,771	1,749	-12,207	1,770	-49,988	14,167	-20,660	18,929				37,68															
03:11:23.393	COM8_115200	2000-0-0 1:23:11.060	0,281	0,873	1,764	-10,376	0,427	-50,110	14,409	-20,275	17,979				37,80															
03:11:23.393	COM3_115200	2000-0-0 1:25:29.745	0,208	-0,817	1,601	23,499	18,860	36,438	-10,107	-16,331	-177,193				39,66															
03:11:23.410	COM3_115200	2000-0-0 1:25:29.765	0,154	-0,806	1,604	23,987	18,799	32,959	-9,981	-15,710	-176,605				39,57															
03:11:23.427	COM8_115200	2000-0-0 1:23:11.080	0,218	0,782	1,736	-12,451	-4,944	-46,997	14,656	-19,979	16,996				37,80															
03:11:23.427	COM3_115200	2000-0-0 1:25:29.785	0,096	-0,875	1,685	26,123	12,634	35,706	-9,855	-15,189	-175,968				39,54															
03:11:23.445	COM8_115200	2000-0-0 1:23:11.100	0,295	0,823	1,746	-12,390	-8,850	-44,983	14,854	-19,792	16,062				37,87															
03:11:23.460	COM3_115200	2000-0-0 1:25:29.805	0,226	-0,805	1,705	25,146	14,893	25,757	-9,673	-14,716	-175,441				39,73															
03:11:23.460	COM8_115200	2000-0-0 1:23:11.120	0,288	0,894	1,736	-16,785	-13,428	-37,598	14,963	-19,688	15,233				37,80															
03:11:23.460	COM3_115200	2000-0-0 1:25:29.825	0,250	-0,875	1,629	20,203	18,188	22,400	-9,520	-14,189	-175,067				39,54															
03:11:23.477	COM8_115200	2000-0-0 1:23:11.140	0,224	0,864	1,685	-17,273	-9,216	-36,621	15,018	-19,589	14,453				37,83															
03:11:23.493	COM3_115200	2000-0-0 1:25:29.845	0,088	-1,004	1,706	20,752	0,488	28,625	-9,465	-13,848	-174,567				39,57															
03:11:23.493	COM8_115200	2000-0-0 1:23:11.160	0,156	0,874	1,739	-14,587	-8,789	-40,894	15,123	-19,457	13,645				37,80															
03:11:23.510	COM3_115200	2000-0-0 1:25:29.865	0,109	-0,857	1,766	19,531	-2,441	23,621	-9,399	-13,733	-174,056				39,57															
03:11:23.510	COM8_115200	2000-0-0 1:23:11.180	0,314	0,876	1,732	-17,700	-7,263	-32,104	15,189	-19,270	12,914				37,80															
03:11:23.527	COM3_115200	2000-0-0 1:25:29.885	0,229	-0,833	1,708	16,174	10,925	13,550	-9,333	-13,436	-173,760				39,57															
03:11:23.543	COM8_115200	2000-0-0 1:23:11.200	0,282	0,891	1,708	-13,062	1,648	-24,597	15,200	-19,017	12,393				37,80															
03:11:23.543	COM3_115200	2000-0-0 1:25:29.905	0,248	-0,886	1,663	11,475	14,587	7,507	-9,311	-13,041	-173,650				39,70															
03:11:23.560	COM8_115200	2000-0-0 1:23:11.220	0,242	0,846	1,718	-7,507	3,113	-18,677	15,276	-18,715	12,025				37,74															
03:11:23.577	COM3_115200	2000-0-0 1:25:29.925	0,104	-0,899	1,698	10,254	-1,648	7,935	-9,344	-12,821	-173,529				39,63															
03:11:23.577	COM8_115200	2000-0-0 1:23:11.240	0,221	0,816	1,778	-6,409	1,831	-9,338	15,364	-18,484	11,810				37,80															
03:11:23.593	COM3_115200	2000-0-0 1:25:29.945	0,090	-0,853	1,745	7,813	-5,371	-2,197	-9,393	-12,832	-173,496				39,66															
03:11:23.593	COM8_115200	2000-0-0 1:23:11.260	0,283	0,834	1,754	-4,211	6,714	2,625	15,386	-18,265	11,849				37,71															
03:11:23.610	COM3_115200	2000-0-0 1:25:29.965	0,310	-0,798	1,727	2,075	4,761	-18,921	-9,454	-12,750	-173,771				39,54															
03:11:23.627	COM8_115200	2000-0-0 1:23:11.280	0,330	0,861	1,751	-2,014	9,216	12,756	15,370	-18,007	12,145				37,90															
03:11:23.627	COM3_115200	2000-0-0 1:25:29.985	0,256	-0,869	1,658	-3,357	4,761	-24,170	-9,591	-12,607	-174,315				39,51															
03:11:23.643	COM8_115200	2000-0-0 1:23:11.300	0,301	0,813	1,788	0,732	9,888	19,470	15,370	-17,792	12,585				37,77															
03:11:23.659	COM8_115200	2000-0-0 1:23:11.320	0,107	0,878	1,805	4,883	6,165	23,804	15,414	-17,650	13,129				37,90															
03:11:23.660	COM3_115200	2000-0-0 1:25:30.005	0,080	-0,896	1,713	-4,517	-10,315	-19,409	-9,789	-12,667	-174,754				39,54															
03:11:23.677	COM3_115200	2000-0-0 1:25:30.025	-0,010	-0,872	1,793	-4,639	-10,132	-23,071	-10,003	-12,898	-175,155				39,57															
03:11:23.693	COM8_115200	2000-0-0 1:23:11.340	0,260	0,899	1,786	2,136	4,944	28,381	15,447	-17,562	13,738				37,74															
03:11:23.693	COM8_115200	2000-0-0 1:23:11.360	0,452	0,917	1,798	-0,122	9,277	31,250	15,381	-17,468	14,431				37,68															
03:11:23.710	COM3_115200	2000-0-0 1:25:30.045	0,329	-0,848	1,818	-6,409	3,967	-36,865	-10,168	-12,942	-175,787				39,57															
03:11:23.710	COM3_115200	2000-0-0 1:25:30.065	0,380	-0,933	1,634	-12,512	15,747	-41,199	-10,366	-12,728	-176,726				39,54															
03:11:23.743	COM8_115200	2000-0-0 1:23:11.380	0,222	0,974	1,789	6,287	6,714	28,381	15,381	-17,336	15,134				37,83															
03:11:23.744	COM8_115200	2000-0-0 1:23:11.400	0,240	0,896	1,815	9,460	1,282	23,987	15,540	-17,287	15,694				37,80															
03:11:23.745	COM3_115200	2000-0-0 1:25:30.085	0,121	-1,021	1,712	-10,010	-6,714	-26,367	-10,651	-12,684	-177,380				39,60															
03:11:23.757	COM3_115200	2000-0-0 1:25:30.105	0,330	-0,957	1,791	-11,780	-15,259	-24,109	-10,975	-12,975	-177,841				39,47															
03:11:23.762	COM8_115200	2000-0-0 1:23:11.420	0,398	0,971	1,777	6,104	0,549	25,818	15,661	-17,309	16,249				37,80															
03:11:23.775	COM3_115200	2000-0-0 1:25:30.125	0,212	-1,061	1,692	-12,939	-12,390	-17,456	-11,332	-13,206	-178,259				39,66															
03:11:23.789	COM8_115200	2000-0-0 1:23:11.440	0,246	1,107	1,734	7,874	1,709	22,339	15,782	-17,276	16,804				37,71															
03:11:23.793	COM8_115200	2000-0-0 1:23:11.460	0,306	1,083	1,749	8,850	0,000	9,399	16,035	-17,216	17,133				37,71															
03:11:23.793	COM3_115200	2000-0-0 1:25:30.145	0,085	-1,083	1,775	-7,141	-21,179	1,770	-11,728	-13,524	-178,281				39,76															
03:11:23.810	COM8_115200	2000-0-0 1:23:11.480	0,230	1,099	1,777	7,507	1,953	-8,972	16,342	-17,084	17,144				37,71															
03:11:23.810	COM3_115200	2000-0-0 1:25:30.165	0,331	-1,071	1,716	-3,052	-15,747	12,695	-12,090	-13,760	-178,039				39,54															
03:11:23.828	COM3_115200	2000-0-0 1:25:30.185	0,102	-1,249	1,673	6,592	-12,573	36,011	-12,420	-13,771	-177,462				39,54															
03:11:23.828	COM8_115200	2000-0-0 1:23:11.500	0,239	1,079	1,799	2,014	-5,371	-26,733	16,705	-16,908	16,754				37,77															
03:11:23.844	COM3_115200	2000-0-0 1:25:30.205	-0,074	-1,032	1,757	17,029	-5,066	44,739	-12,579	-13,683	-176,556				39,70															
03:11:23.860	COM8_115200	2000-0-0 1:23:11.520	0,277	0,998	1,787	-0,610	1,465	-34,058	17,040	-16,661	16,144				37,83															
03:11:23.877	COM8_115200	2000-0-0 1:23:11.540	0,320	0,932	1,738	-0,916	8,301	-34,546	17,347	-16,238	15,540				37,80															
03:11:23.877	COM3_115200	2000-0-0 1:25:30.225	0,074	-0,868	1,716	17,944	0,793	41,931	-12,651	-13,376	-175,682				39,57															
03:11:23.894	COM3_115200	2000-0-0 1:25:30.245	0,054	-0,867	1,685	9,766	11,047	32,898	-12,755	-13,008	-174,990				39,66															
03:11:23.894	COM8_115200	2000-0-0 1:23:11.560	0,312	0,902	1,764	2,991	13,855	-35,095	17,688	-15,688	14,958				37,90															
03:11:23.910	COM3_115200	2000-0-0 1:25:30.265	0,259	-0,736	1,646	1,465	21,240	15,869	-12,936	-12,437	-174,661				39,60															
03:11:23.910	COM8_115200	2000-0-0 1:23:11.580	0,419	0,828	1,764	4,517	13,123	-27,954	18,040	-15,139	14,474				37,68															
03:11:23.927	COM3_115200	2000-0-0 1:25:30.285	0,494	-0,803	1,534	-5,920	29,419	9,216	-13,217	-11,733	-174,628				39,54															
03:11:23.927	COM8_115200	2000-0-0 1:23:11.600	0,264	0,853	1,746	11,780	11,597	-21,362	18,430	-14,672	14,145				37,77															
03:11:23.943	COM3_115200	2000-0-0 1:25:30.305	0,146	-0,981	1,540	-3,845	8,179	20,569	-13,557	-11,223	-174,452				39,57															
03:11:23.960	COM8_115200	2000-0-0 1:23:11.620	0,088	0,918	1,783	14,221	-1,526	-18,005	18,902	-14,409	13,837				37,80															
03:11:23.976	COM3_115200	2000-0-0 1:25:30.325	-0,034	-1,014	1,648	5,066	-12,085	25,879	-13,804	-11,146	-173,963				39,47															
03:11:23.977	COM8_115200	2000-0-0 1:23:11.640	0,140	0,965	1,762	9,827	-8,423	-14,465	19,314	-14,354	13,546				37,87															
03:11:23.993	COM3_115200	2000-0-0 1:25:30.345	-0,059	-0,928	1,727	10,010	-5,493	24,353	-13,909	-11,140	-173,452				39,60															
03:11:23.993	COM8_115200	2000-0-0 1:23:11.660	0,174	1,010	1,765	1,343	-2,747	-24,963	19,605	-14,266	13,151				37,74															
03:11:24.010	COM3_115200	2000-0-0 1:25:30.365	0,053	-0,940	1,754	10,193	27,893	24,963	-13,969	-10,602	-173,101				39,66															
03:11:24.026	COM8_115200	2000-0-0 1:23:11.680	0,265	1,005	1,716	-3,296	10,986	-35,034	19,803	-13,837	12,640				37,80															
03:11:24.026	COM3_115200	2000-0-0 1:25:30.385	0,027	-1,085	1,751	8,606	22,827	37,048	-14,073	-9,772	-172,650				39,60															
03:11:24.060	COM8_115200	2000-0-0 1:23:11.700	0,224	0,999	1,719	-2,991	12,817	-49,805	20,023	-13,211	11,920				37,93															
03:11:24.060	COM8_115200	2000-0-0 1:23:11.720	0,160	1,016	1,725	-2,930	7,324	-60,059	20,314	-12,563	10,948				37,80															
03:11:24.060	COM3_115200	2000-0-0 1:25:30.405	-0,007	-1,042	1,749	9,399	8,545	47,424	-14,211	-9,207	-171,892				39,60															
03:11:24.076	COM3_115200	2000-0-0 1:25:30.425	-0,019	-0,975	1,743	13,428	6,958	57,312	-14,326	-8,762	-170,887				39,60															
03:11:24.093	COM8_115200	2000-0-0 1:23:11.740	0,115	0,954	1,691	-4,517	12,878	-61,829	20,555	-11,871	9,871				37,83															
03:11:24.093	COM3_115200	2000-0-0 1:25:30.445	-0,003	-0,940	1,667	13,184	15,564	65,308	-14,398	-8,119	-169,794				39,63															
03:11:24.093	COM8_115200	2000-0-0 1:23:11.760	0,083	0,962	1,685	0,732	11,902	-63,538	20,869	-11,118	8,822				37,80															
03:11:24.110	COM3_115200	2000-0-0 1:25:30.465	-0,075	-0,933	1,705	16,785	13,306	75,134	-14,453	-7,427	-168,508				39,51															
03:11:24.110	COM8_115200	2000-0-0 1:23:11.780	0,006	0,940	1,686	-2,502	14,954	-60,730	21,154	-10,388	7,778				37,83															
03:11:24.127	COM3_115200	2000-0-0 1:25:30.485	-0,181	-0,929	1,645	24,231	35,706	64,026	-14,343	-6,515	-167,338				39,57															
03:11:24.143	COM8_115200	2000-0-0 1:23:11.800	0,114	0,908	1,732	-4,578	22,400	-51,758	21,330	-9,525	6,938				37,77															
03:11:24.143	COM3_115200	2000-0-0 1:25:30.505	-0,015	-0,893	1,616	25,818	52,979	46,631	-14,101	-5,224	-166,569				39,63															
03:11:24.159	COM8_115200	2000-0-0 1:23:11.820	0,159	0,887	1,738	-11,902	7,446	-39,917	21,352	-8,899	6,251				37,77															
03:11:24.160	COM3_115200	2000-0-0 1:25:30.525	0,005	-0,819	1,623	24,719	50,537	21,362	-13,804	-4,026	-166,267				39,41															
03:11:24.178	COM8_115200	2000-0-0 1:23:11.840	0,206	0,889	1,729	-15,503	5,798	-23,621	21,242	-8,520	5,790				37,80															
03:11:24.193	COM3_115200	2000-0-0 1:25:30.545	0,117	-0,813	1,653	20,447	65,186	-13,672	-13,519	-2,823	-166,586				39,60															
03:11:24.193	COM8_115200	2000-0-0 1:23:11.860	0,405	0,909	1,683	-14,832	6,836	4,395	21,022	-8,300	5,768				37,68															
03:11:24.210	COM3_115200	2000-0-0 1:25:30.565	0,514	-0,819	1,699	13,306	67,200	-44,617	-13,337	-1,593	-167,618				39,51															
03:11:24.210	COM8_115200	2000-0-0 1:23:11.880	0,328	0,819	1,772	-7,874	-2,686	23,315	20,863	-8,344	6,152				37,83															
03:11:24.226	COM3_115200	2000-0-0 1:25:30.585	0,242	-0,805	1,724	9,949	38,940	-58,044	-13,271	-0,873	-168,970				39,60															
03:11:24.243	COM8_115200	2000-0-0 1:23:11.900	0,122	0,836	1,809	-5,005	-16,235	34,607	20,753	-8,734	6,718				37,87															
03:11:24.243	COM3_115200	2000-0-0 1:25:30.605	0,265	-0,842	1,748	1,221	19,165	-67,139	-13,337	-0,637	-170,370				39,47															
03:11:24.260	COM8_115200	2000-0-0 1:23:11.920	0,034	0,898	1,737	-8,118	-16,907	46,753	20,599	-9,322	7,427				37,71															
03:11:24.278	COM8_115200	2000-0-0 1:23:11.940	0,229	0,930	1,684	-12,390	-8,728	61,707	20,292	-9,899	8,448				37,80															
03:11:24.278	COM3_115200	2000-0-0 1:25:30.625	0,010	-0,902	1,798	-3,540	-10,925	-67,871	-13,519	-1,022	-171,766				39,54															
03:11:24.293	COM3_115200	2000-0-0 1:25:30.645	-0,017	-0,919	1,842	-0,488	-7,202	-74,524	-13,694	-1,577	-173,167				39,51															
03:11:24.293	COM8_115200	2000-0-0 1:23:11.960	-0,049	0,823	1,718	-2,380	5,920	72,998	19,984	-10,305	9,855				37,90															
03:11:24.310	COM3_115200	2000-0-0 1:25:30.665	0,312	-0,836	1,853	1,892	18,677	-85,815	-13,782	-1,835	-174,836				39,51															
03:11:24.343	COM8_115200	2000-0-0 1:23:11.980	0,127	0,963	1,754	-0,977	5,127	67,322	19,825	-10,596	11,288				37,74															
03:11:24.343	COM3_115200	2000-0-0 1:25:30.685	0,157	-0,968	1,872	-5,005	12,207	-74,341	-13,947	-1,829	-176,578				39,70															
03:11:24.343	COM8_115200	2000-0-0 1:23:12.000	0,182	0,970	1,778	-11,658	-9,644	59,326	19,550	-11,014	12,480				37,74															
03:11:24.343	COM3_115200	2000-0-0 1:25:30.705	0,173	-1,012	1,877	-7,874	-23,926	-64,575	-14,211	-2,368	-177,924				39,57															
03:11:24.360	COM8_115200	2000-0-0 1:23:12.020	0,331	0,892	1,778	-7,507	-0,854	64,087	19,221	-11,426	13,678				37,77															
03:11:24.378	COM8_115200	2000-0-0 1:23:12.040	0,178	0,976	1,801	5,188	4,578	62,439	19,078	-11,695	14,974				37,74															
03:11:24.393	COM3_115200	2000-0-0 1:25:30.725	0,104	-0,923	1,896	-3,723	-31,006	-57,556	-14,409	-3,296	-178,973				39,60															
03:11:24.393	COM3_115200	2000-0-0 1:25:30.745	0,163	-0,899	1,796	-6,470	-16,174	-61,890	-14,579	-3,999	179,896				39,57															
03:11:24.393	COM8_115200	2000-0-0 1:23:12.060	0,284	0,964	1,816	5,066	-3,174	50,476	19,061	-11,953	16,106				37,74															
03:11:24.426	COM3_115200	2000-0-0 1:25:30.765	0,352	-0,827	1,739	-15,137	-9,888	-64,575	-14,848	-4,581	178,654				39,63															
03:11:24.426	COM8_115200	2000-0-0 1:23:12.080	0,223	0,857	1,856	8,667	6,775	44,006	19,094	-12,145	17,012				37,64															
03:11:24.426	COM8_115200	2000-0-0 1:23:12.100	0,491	0,770	1,767	10,376	-2,625	53,650	19,177	-12,338	18,034				37,74															
03:11:24.459	COM3_115200	2000-0-0 1:25:30.785	0,220	-0,998	1,737	-16,479	-34,363	-48,462	-15,260	-5,301	177,709				39,63															
03:11:24.460	COM3_115200	2000-0-0 1:25:30.805	0,060	-0,872	1,769	-17,029	-43,396	-50,293	-15,650	-6,378	176,962				39,54															
03:11:24.460	COM8_115200	2000-0-0 1:23:12.120	0,236	0,917	1,774	17,761	-14,038	59,631	19,330	-12,832	19,138				37,71															
03:11:24.479	COM3_115200	2000-0-0 1:25:30.825	0,276	-0,679	1,849	-20,996	-20,569	-70,557	-16,040	-7,251	175,880				39,63															
03:11:24.479	COM8_115200	2000-0-0 1:23:12.140	0,250	0,887	1,828	20,325	-15,808	50,903	19,605	-13,436	20,116				37,74															
03:11:24.494	COM8_115200	2000-0-0 1:23:12.160	0,427	0,681	1,818	18,555	-13,367	51,147	19,858	-13,958	21,017				37,80															
03:11:24.494	COM3_115200	2000-0-0 1:25:30.845	0,534	-0,680	1,737	-34,119	-5,127	-77,881	-16,551	-7,806	174,386				39,54															
03:11:24.510	COM3_115200	2000-0-0 1:25:30.865	0,405	-0,892	1,671	-30,945	-26,184	-67,078	-17,144	-8,476	173,073				39,54															
03:11:24.510	COM8_115200	2000-0-0 1:23:12.180	0,577	0,580	1,742	29,663	-9,888	69,702	20,132	-14,524	22,187				37,80															
03:11:24.526	COM8_115200	2000-0-0 1:23:12.200	0,156	0,914	1,776	30,579	-26,550	69,702	20,468	-15,287	23,461				37,77															
03:11:24.526	COM3_115200	2000-0-0 1:25:30.885	0,334	-0,777	1,749	-28,015	-54,688	-62,805	-17,672	-9,734	172,156				39,60															
03:11:24.543	COM3_115200	2000-0-0 1:25:30.905	0,583	-0,561	1,750	-40,527	-27,222	-74,097	-18,226	-10,931	171,035				39,51															
03:11:24.559	COM8_115200	2000-0-0 1:23:12.220	0,224	0,750	1,829	32,715	-26,062	66,223	20,885	-16,260	24,571				37,74															
03:11:24.579	COM3_115200	2000-0-0 1:25:30.925	0,551	-0,942	1,606	-42,114	-32,898	-68,115	-18,929	-11,849	169,882				39,73															
03:11:24.579	COM8_115200	2000-0-0 1:23:12.240	0,594	0,579	1,724	33,264	-5,493	70,679	21,220	-16,853	25,851				37,80															
03:11:24.593	COM3_115200	2000-0-0 1:25:30.945	0,252	-1,038	1,698	-31,067	-74,524	-56,763	-19,539	-13,315	169,085				39,76															
03:11:24.593	COM8_115200	2000-0-0 1:23:12.260	0,372	0,806	1,653	28,442	4,089	79,102	21,429	-17,325	27,372				37,74															
03:11:24.609	COM3_115200	2000-0-0 1:25:30.965	0,068	-0,830	1,875	-32,227	-87,524	-48,279	-20,149	-15,172	168,673				39,44															
03:11:24.609	COM8_115200	2000-0-0 1:23:12.280	0,140	0,899	1,721	30,762	11,108	78,064	21,555	-17,617	29,026				37,77															
03:11:24.626	COM3_115200	2000-0-0 1:25:30.985	0,273	-0,488	1,947	-38,391	-70,007	-62,622	-20,753	-17,018	168,113				39,54															
03:11:24.643	COM8_115200	2000-0-0 1:23:12.300	0,708	0,602	1,755	28,687	16,602	73,425	21,720	-17,831	30,602				37,83															
03:11:24.643	COM3_115200	2000-0-0 1:25:31.005	0,555	-0,510	1,668	-56,152	-16,663	-59,570	-21,462	-18,062	167,135				39,51															
03:11:24.659	COM8_115200	2000-0-0 1:23:12.320	0,639	0,727	1,780	21,851	39,795	67,566	21,725	-17,672	32,239				37,74															
03:11:24.679	COM3_115200	2000-0-0 1:25:31.025	0,527	-0,866	1,464	-58,411	-9,644	-49,744	-22,330	-18,506	166,163				39,44															
03:11:24.679	COM8_115200	2000-0-0 1:23:12.340	0,352	0,825	1,798	29,053	46,631	59,448	21,780	-17,172	33,871				37,87															
03:11:24.693	COM3_115200	2000-0-0 1:25:31.045	0,209	-0,944	1,362	-48,645	-30,457	-38,879	-23,192	-19,155	165,520				39,63															
03:11:24.693	COM8_115200	2000-0-0 1:23:12.360	0,523	0,685	1,888	35,461	17,822	51,086	22,088	-16,990	35,162				37,74															
03:11:24.709	COM3_115200	2000-0-0 1:25:31.065	0,241	-0,634	1,652	-43,274	-49,011	-47,058	-23,928	-20,215	165,059				39,51															
03:11:24.726	COM8_115200	2000-0-0 1:23:12.380	0,729	0,561	1,810	38,696	19,531	51,208	22,500	-17,018	36,299				37,71															
03:11:24.742	COM3_115200	2000-0-0 1:25:31.085	0,521	-0,386	1,666	-60,364	-7,080	-54,138	-24,697	-21,050	164,246				39,70															
03:11:24.743	COM8_115200	2000-0-0 1:23:12.400	0,683	0,736	1,633	38,330	39,978	56,213	22,896	-16,776	37,634				37,83															
03:11:24.759	COM8_115200	2000-0-0 1:23:12.420	0,471	0,852	1,639	46,631	26,245	52,979	23,351	-16,556	39,001				37,71															
03:11:24.759	COM3_115200	2000-0-0 1:25:31.105	0,413	-0,689	1,451	-73,486	20,691	-45,837	-25,670	-21,033	163,163				39,73															
03:11:24.759	COM3_115200	2000-0-0 1:25:31.125	0,331	-0,799	1,417	-71,533	7,141	-42,114	-26,746	-21,011	162,164				39,60															
03:11:24.803	COM8_115200	2000-0-0 1:23:12.440	0,646	0,630	1,730	51,453	3,357	56,702	24,038	-16,782	40,150				37,77															
03:11:24.804	COM8_115200	2000-0-0 1:23:12.460	0,924	0,595	1,661	51,941	8,545	65,430	24,703	-17,194	41,391				37,74															
03:11:24.805	COM3_115200	2000-0-0 1:25:31.145	0,449	-0,595	1,572	-69,214	-16,296	-47,974	-27,806	-21,511	161,384				39,60															
03:11:24.826	COM3_115200	2000-0-0 1:25:31.165	0,616	-0,492	1,452	-83,740	-0,916	-47,607	-28,987	-22,022	160,560				39,63															
03:11:24.826	COM3_115200	2000-0-0 1:25:31.185	0,494	-0,699	1,387	-81,543	8,911	-41,565	-30,251	-22,236	159,692				39,76															
03:11:24.826	COM8_115200	2000-0-0 1:23:12.480	0,450	0,858	1,562	50,232	13,000	63,416	25,274	-17,463	42,781				37,77															
03:11:24.826	COM8_115200	2000-0-0 1:23:12.500	0,569	0,656	1,674	66,772	0,793	56,396	26,120	-17,869	43,956				37,64															
03:11:24.844	COM3_115200	2000-0-0 1:25:31.205	0,523	-0,695	1,309	-81,604	11,292	-37,048	-31,459	-22,291	158,758				39,57															
03:11:24.859	COM8_115200	2000-0-0 1:23:12.520	0,809	0,570	1,647	60,303	-21,606	57,739	27,032	-18,649	44,912				37,74															
03:11:24.879	COM3_115200	2000-0-0 1:25:31.225	0,517	-0,584	1,413	-73,853	-18,921	-37,903	-32,684	-22,769	158,192				39,60															
03:11:24.879	COM8_115200	2000-0-0 1:23:12.540	0,737	0,600	1,561	62,866	-10,437	56,702	27,900	-19,429	45,862				37,71															
03:11:24.893	COM8_115200	2000-0-0 1:23:12.560	0,623	0,665	1,515	61,340	-4,944	56,030	28,735	-20,056	46,879				37,83															
03:11:24.909	COM3_115200	2000-0-0 1:25:31.245	0,624	-0,449	1,308	-83,313	-18,677	-38,147	-33,948	-23,406	157,709				39,54															
03:11:24.909	COM3_115200	2000-0-0 1:25:31.265	0,424	-0,717	1,273	-81,543	-27,771	-26,917	-35,403	-24,038	157,440				39,66															
03:11:24.909	COM8_115200	2000-0-0 1:23:12.580	0,591	0,610	1,595	63,293	-18,860	53,955	29,586	-20,830	47,785				37,74															
03:11:24.926	COM3_115200	2000-0-0 1:25:31.285	0,560	-0,579	1,311	-67,688	-25,391	-34,363	-36,601	-24,741	157,192				39,51															
03:11:24.943	COM8_115200	2000-0-0 1:23:12.600	0,816	0,502	1,634	63,110	-27,954	55,603	30,509	-21,802	48,543				37,83															
03:11:24.943	COM3_115200	2000-0-0 1:25:31.305	0,555	-0,495	1,287	-69,275	-54,382	-32,104	-37,809	-25,719	157,121				39,57															
03:11:24.979	COM3_115200	2000-0-0 1:25:31.325	0,484	-0,479	1,287	-68,787	-47,852	-29,480	-39,106	-26,807	157,247				39,63															
03:11:24.979	COM8_115200	2000-0-0 1:23:12.620	0,743	0,468	1,497	60,974	-27,588	57,922	31,328	-22,874	49,318				37,96															
03:11:24.979	COM8_115200	2000-0-0 1:23:12.640	0,574	0,513	1,517	62,744	-25,635	55,786	32,146	-23,884	50,103				37,71															
03:11:24.993	COM3_115200	2000-0-0 1:25:31.345	0,451	-0,441	1,200	-66,101	-23,560	-26,306	-40,226	-27,592	157,209				39,63															
03:11:24.993	COM8_115200	2000-0-0 1:23:12.660	0,661	0,456	1,598	63,171	-39,185	55,359	32,970	-25,010	50,757				37,74															
03:11:25.009	COM3_115200	2000-0-0 1:25:31.365	0,580	-0,474	1,128	-61,523	-23,560	-31,372	-41,166	-28,163	156,989				39,57															
03:11:25.009	COM8_115200	2000-0-0 1:23:12.680	0,881	0,421	1,511	58,533	-39,917	61,523	33,734	-26,285	51,416				37,74															
03:11:25.026	COM3_115200	2000-0-0 1:25:31.385	0,420	-0,513	1,110	-56,946	-47,424	-35,095	-42,089	-29,086	156,940				39,51															
03:11:25.026	COM8_115200	2000-0-0 1:23:12.700	0,716	0,453	1,402	57,007	-33,386	63,110	34,371	-27,526	52,169				37,87															
03:11:25.043	COM3_115200	2000-0-0 1:25:31.405	0,503	-0,350	1,285	-52,979	-60,730	-32,959	-43,011	-30,245	157,192				39,57															
03:11:25.059	COM8_115200	2000-0-0 1:23:12.720	0,721	0,410	1,417	54,688	-31,067	63,843	34,920	-28,718	53,004				37,80															
03:11:25.059	COM3_115200	2000-0-0 1:25:31.425	0,626	-0,313	1,255	-59,448	-46,814	-36,255	-44,022	-31,404	157,445				39,60															
03:11:25.080	COM8_115200	2000-0-0 1:23:12.740	0,847	0,349	1,446	52,002	-33,142	63,782	35,387	-29,938	53,800				37,74															
03:11:25.093	COM3_115200	2000-0-0 1:25:31.445	0,586	-0,327	1,092	-53,040	-15,259	-34,180	-44,753	-32,157	157,242				39,60															
03:11:25.093	COM8_115200	2000-0-0 1:23:12.760	0,787	0,361	1,375	49,683	-21,606	64,636	35,728	-31,014	54,750				37,83															
03:11:25.109	COM3_115200	2000-0-0 1:25:31.465	0,447	-0,348	1,112	-49,316	-24,048	-31,799	-45,286	-32,745	156,890				39,60															
03:11:25.127	COM8_115200	2000-0-0 1:23:12.780	0,888	0,305	1,327	50,293	-17,517	64,331	35,991	-32,025	55,767				37,83															
03:11:25.127	COM3_115200	2000-0-0 1:25:31.485	0,452	-0,326	1,189	-45,776	-32,288	-24,353	-45,934	-33,431	156,907				39,60															
03:11:25.143	COM8_115200	2000-0-0 1:23:12.800	0,781	0,342	1,317	43,396	-17,395	61,890	36,134	-32,986	56,805				37,77															
03:11:25.159	COM3_115200	2000-0-0 1:25:31.505	0,530	-0,305	1,144	-49,805	-30,273	-29,480	-46,604	-34,173	156,940				39,51															
03:11:25.180	COM8_115200	2000-0-0 1:23:12.820	0,747	0,296	1,343	44,800	-10,925	59,814	36,205	-33,838	57,881				37,77															
03:11:25.193	COM8_115200	2000-0-0 1:23:12.840	0,923	0,236	1,359	44,983	-12,512	58,838	36,293	-34,667	58,925				37,80															
03:11:25.193	COM8_115200	2000-0-0 1:23:12.860	0,915	0,235	1,226	41,687	-6,653	56,213	36,304	-35,425	60,013				37,77															
03:11:25.193	COM3_115200	2000-0-0 1:25:31.525	0,420	-0,291	1,096	-50,598	-10,742	-25,146	-47,126	-34,623	156,714				39,54															
03:11:25.209	COM3_115200	2000-0-0 1:25:31.545	0,564	-0,228	1,121	-46,204	-0,488	-18,005	-47,516	-34,849	156,379				39,66															
03:11:25.209	COM3_115200	2000-0-0 1:25:31.565	0,535	-0,282	0,957	-50,964	2,136	-18,311	-47,900	-34,980	155,923				39,47															
03:11:25.209	COM8_115200	2000-0-0 1:23:12.880	0,729	0,206	1,274	42,358	-0,793	52,673	36,260	-36,068	61,106				37,74															
03:11:25.226	COM8_115200	2000-0-0 1:23:12.900	0,876	0,200	1,326	40,955	-3,174	49,683	36,249	-36,628	62,172				37,90															
03:11:25.242	COM3_115200	2000-0-0 1:25:31.585	0,545	-0,345	1,028	-40,955	-1,160	-19,348	-48,241	-35,129	155,495				39,57															
03:11:25.243	COM3_115200	2000-0-0 1:25:31.605	0,498	-0,208	1,053	-40,344	-4,822	-16,296	-48,472	-35,305	155,160				39,54															
03:11:25.259	COM8_115200	2000-0-0 1:23:12.920	0,799	0,122	1,271	37,170	-7,996	46,143	36,183	-37,260	63,089				37,77															
03:11:25.276	COM3_115200	2000-0-0 1:25:31.625	0,453	-0,192	1,112	-41,626	2,136	-11,475	-48,768	-35,403	154,874				39,60															
03:11:25.281	COM8_115200	2000-0-0 1:23:12.940	0,751	0,076	1,291	38,025	-3,967	43,762	36,123	-37,793	64,012				37,77															
03:11:25.292	COM3_115200	2000-0-0 1:25:31.645	0,436	-0,208	1,057	-39,124	11,597	-12,390	-48,939	-35,321	154,418				39,66															
03:11:25.293	COM8_115200	2000-0-0 1:23:12.960	0,739	0,054	1,295	37,537	-4,456	43,457	36,024	-38,315	64,929				37,77															
03:11:25.309	COM3_115200	2000-0-0 1:25:31.665	0,417	-0,210	1,023	-37,231	9,583	-11,902	-49,037	-35,239	153,929				39,70															
03:11:25.309	COM8_115200	2000-0-0 1:23:12.980	0,734	0,035	1,333	34,851	-4,822	43,701	35,859	-38,826	65,847				37,77															
03:11:25.326	COM3_115200	2000-0-0 1:25:31.685	0,424	-0,158	1,071	-32,776	2,319	-16,541	-49,070	-35,288	153,501				39,66															
03:11:25.343	COM3_115200	2000-0-0 1:25:31.705	0,335	-0,135	1,093	-30,212	2,991	-19,714	-49,016	-35,425	153,051				39,57															
03:11:25.359	COM8_115200	2000-0-0 1:23:13.000	0,768	0,023	1,324	31,006	-2,014	44,617	35,590	-39,298	66,841				37,77															
03:11:25.359	COM8_115200	2000-0-0 1:23:13.020	0,688	-0,013	1,338	29,968	1,709	45,593	35,195	-39,721	67,901				37,80															
03:11:25.359	COM3_115200	2000-0-0 1:25:31.725	0,256	-0,118	1,177	-26,672	6,714	-25,269	-48,812	-35,546	152,457				39,54															
03:11:25.376	COM8_115200	2000-0-0 1:23:13.040	0,729	-0,030	1,354	25,330	5,676	46,936	34,678	-40,095	69,055				37,74															
03:11:25.380	COM3_115200	2000-0-0 1:25:31.745	0,274	-0,088	1,350	-31,677	2,563	-37,170	-48,554	-35,799	151,727				39,54															
03:11:25.393	COM8_115200	2000-0-0 1:23:13.060	0,659	-0,021	1,338	20,752	3,723	49,683	33,992	-40,452	70,291				37,74															
03:11:25.409	COM8_115200	2000-0-0 1:23:13.080	0,697	-0,043	1,270	22,278	-3,052	54,443	33,239	-40,908	71,565				37,83															
03:11:25.409	COM3_115200	2000-0-0 1:25:31.765	0,644	-0,057	1,183	-36,133	-8,545	-49,438	-48,340	-36,376	150,947				39,54															
03:11:25.426	COM3_115200	2000-0-0 1:25:31.785	0,570	-0,106	0,981	-39,917	-0,793	-43,213	-48,170	-36,909	150,106				39,57															
03:11:25.426	COM8_115200	2000-0-0 1:23:13.100	0,799	0,033	1,197	24,963	-25,513	62,073	32,596	-41,715	72,762				37,74															
03:11:25.442	COM3_115200	2000-0-0 1:25:31.805	0,522	-0,093	1,040	-26,245	-7,568	-48,401	-47,840	-37,502	149,249				39,60															
03:11:25.459	COM8_115200	2000-0-0 1:23:13.120	0,848	0,034	1,269	13,123	-29,419	62,012	31,855	-42,737	73,889				37,83															
03:11:25.476	COM3_115200	2000-0-0 1:25:31.825	0,490	0,006	1,082	-27,222	-25,208	-40,894	-47,571	-38,249	148,716				39,63															
03:11:25.481	COM8_115200	2000-0-0 1:23:13.140	0,889	-0,013	1,228	2,625	-32,715	59,448	30,905	-43,753	75,004				37,61															
03:11:25.492	COM3_115200	2000-0-0 1:25:31.845	0,381	-0,081	1,089	-33,630	-26,855	-44,312	-47,593	-39,117	148,387				39,57															
03:11:25.493	COM8_115200	2000-0-0 1:23:13.160	0,871	-0,158	1,265	1,648	-42,236	53,589	29,987	-44,852	75,938				37,71															
03:11:25.526	COM8_115200	2000-0-0 1:23:13.180	0,788	-0,220	1,298	3,174	-46,814	48,706	29,174	-46,000	76,701				37,71															
03:11:25.526	COM3_115200	2000-0-0 1:25:31.865	0,533	-0,002	1,063	-26,062	-32,288	-37,415	-47,472	-39,963	148,052				39,60															
03:11:25.526	COM3_115200	2000-0-0 1:25:31.885	0,616	0,017	0,884	-32,837	-41,443	-28,320	-47,653	-40,820	148,079				39,63															
03:11:25.559	COM8_115200	2000-0-0 1:23:13.200	0,777	-0,220	1,326	4,456	-48,035	42,358	28,477	-47,120	77,344				37,74															
03:11:25.559	COM8_115200	2000-0-0 1:23:13.220	0,657	-0,232	1,309	8,179	-45,959	35,889	27,911	-48,148	77,855				37,83															
03:11:25.559	COM3_115200	2000-0-0 1:25:31.905	0,551	-0,003	0,846	-26,917	-37,781	-25,146	-47,867	-41,528	148,233				39,60															
03:11:25.559	COM3_115200	2000-0-0 1:25:31.925	0,504	0,017	0,916	-18,799	-41,077	-21,057	-47,917	-42,226	148,359				39,66															
03:11:25.576	COM8_115200	2000-0-0 1:23:13.240	0,639	-0,232	1,311	13,367	-45,532	30,579	27,504	-49,070	78,278				37,68															
03:11:25.581	COM3_115200	2000-0-0 1:25:31.945	0,828	0,035	1,031	-20,447	-48,584	-13,916	-48,142	-42,962	148,837				39,60															
03:11:25.609	COM8_115200	2000-0-0 1:23:13.260	1,172	-0,203	1,302	10,498	-50,354	25,452	27,224	-49,999	78,547				37,68															
03:11:25.609	COM8_115200	2000-0-0 1:23:13.280	0,681	-0,092	1,255	12,329	-26,428	-0,793	27,169	-50,565	78,536				37,80															
03:11:25.626	COM3_115200	2000-0-0 1:25:31.965	0,839	-0,104	1,156	-25,208	-26,184	12,878	-48,450	-43,358	149,337				39,54															
03:11:25.626	COM3_115200	2000-0-0 1:25:31.985	0,091	-0,100	0,959	-3,052	-5,859	13,062	-48,609	-43,292	149,826				39,70															
03:11:25.626	COM8_115200	2000-0-0 1:23:13.300	0,357	-0,354	1,225	32,349	9,949	-4,395	27,389	-50,438	78,508				37,74															
03:11:25.643	COM3_115200	2000-0-0 1:25:32.005	0,270	0,147	0,964	1,892	21,484	16,479	-47,840	-42,682	149,529				39,54															
03:11:25.659	COM8_115200	2000-0-0 1:23:13.320	0,733	-0,174	1,263	18,677	-6,836	0,061	27,372	-50,191	78,668				37,74															
03:11:25.659	COM3_115200	2000-0-0 1:25:32.025	0,349	0,060	1,086	-16,113	-6,165	5,798	-47,543	-42,391	149,496				39,60															
03:11:25.681	COM8_115200	2000-0-0 1:23:13.340	0,586	-0,137	1,286	16,602	7,385	-3,784	27,208	-49,933	78,865				37,80															
03:11:25.681	COM3_115200	2000-0-0 1:25:32.045	0,340	0,042	1,118	-8,728	3,174	1,038	-47,175	-42,215	149,288				39,63															
03:11:25.693	COM8_115200	2000-0-0 1:23:13.360	0,642	-0,214	1,217	19,104	17,395	0,549	26,900	-49,438	79,316				37,83															
03:11:25.709	COM3_115200	2000-0-0 1:25:32.065	0,383	0,097	1,065	-5,005	11,597	1,343	-46,544	-41,918	148,881				39,44															
03:11:25.709	COM8_115200	2000-0-0 1:23:13.380	0,703	-0,219	1,226	11,719	9,644	0,549	26,521	-49,016	79,722				37,87															
03:11:25.726	COM3_115200	2000-0-0 1:25:32.085	0,490	0,068	1,040	-3,967	10,132	-5,554	-45,862	-41,655	148,447				39,54															
03:11:25.742	COM8_115200	2000-0-0 1:23:13.400	0,716	-0,241	1,231	5,554	11,353	-0,244	26,060	-48,604	80,068				37,64															
03:11:25.742	COM3_115200	2000-0-0 1:25:32.105	0,442	0,143	1,036	2,747	10,315	-5,249	-44,973	-41,413	147,892				39,51															
03:11:25.759	COM8_115200	2000-0-0 1:23:13.420	0,694	-0,254	1,193	0,000	12,268	-3,052	25,521	-48,170	80,376				37,77															
03:11:25.759	COM3_115200	2000-0-0 1:25:32.125	0,422	0,120	1,088	5,249	12,817	1,404	-44,099	-41,089	147,480				39,70															
03:11:25.782	COM8_115200	2000-0-0 1:23:13.440	0,737	-0,216	1,187	-4,272	9,277	-5,981	24,966	-47,741	80,568				37,71															
03:11:25.782	COM3_115200	2000-0-0 1:25:32.145	0,406	0,073	1,104	6,226	11,902	-0,061	-43,209	-40,715	147,068				39,38															
03:11:25.792	COM8_115200	2000-0-0 1:23:13.460	0,734	-0,176	1,184	-9,094	4,028	-8,484	24,423	-47,373	80,607				37,77															
03:11:25.819	COM3_115200	2000-0-0 1:25:32.165	0,455	0,004	1,052	7,019	5,371	2,502	-42,391	-40,430	146,772				39,70															
03:11:25.826	COM8_115200	2000-0-0 1:23:13.480	0,740	-0,164	1,192	-10,803	-1,709	-11,169	23,945	-47,098	80,519				37,71															
03:11:25.831	COM3_115200	2000-0-0 1:25:32.185	0,523	0,035	0,990	9,155	-1,282	1,587	-41,622	-40,188	146,607				39,73															
03:11:25.842	COM8_115200	2000-0-0 1:23:13.500	0,749	-0,165	1,231	-10,437	-5,920	-13,184	23,560	-46,906	80,283				37,71															
03:11:25.852	COM3_115200	2000-0-0 1:25:32.205	0,454	0,025	0,950	8,484	-4,089	7,080	-40,952	-40,012	146,574				39,54															
03:11:25.859	COM8_115200	2000-0-0 1:23:13.520	0,764	-0,177	1,245	-10,254	-8,606	-17,761	23,291	-46,730	79,915				37,80															
03:11:25.875	COM3_115200	2000-0-0 1:25:32.225	0,500	0,015	1,052	13,306	-11,597	13,367	-40,391	-39,831	146,788				39,60															
03:11:25.909	COM8_115200	2000-0-0 1:23:13.540	0,760	-0,180	1,259	-11,292	-10,315	-21,912	23,104	-46,577	79,420				37,74															
03:11:25.909	COM8_115200	2000-0-0 1:23:13.560	0,708	-0,161	1,271	-11,475	-5,981	-26,611	22,972	-46,351	78,827				37,74															
03:11:25.909	COM3_115200	2000-0-0 1:25:32.245	0,494	0,006	1,041	13,367	-9,827	16,541	-39,891	-39,655	147,123				39,41															
03:11:25.909	COM3_115200	2000-0-0 1:25:32.265	0,460	-0,002	0,962	17,883	-4,700	19,470	-39,315	-39,353	147,437				39,76															
03:11:25.926	COM8_115200	2000-0-0 1:23:13.580	0,741	-0,137	1,263	-13,123	-8,728	-29,053	22,890	-46,099	78,146				37,80															
03:11:25.926	COM3_115200	2000-0-0 1:25:32.285	0,475	0,002	1,020	20,630	-11,292	23,376	-38,760	-39,056	147,876				39,70															
03:11:25.942	COM8_115200	2000-0-0 1:23:13.600	0,761	-0,138	1,260	-13,916	-9,583	-32,898	22,874	-45,868	77,349				37,83															
03:11:25.959	COM3_115200	2000-0-0 1:25:32.305	0,492	-0,007	1,038	23,193	-11,292	25,757	-38,232	-38,804	148,425				39,57															
03:11:25.959	COM8_115200	2000-0-0 1:23:13.620	0,736	-0,135	1,254	-14,282	-4,211	-37,354	22,879	-45,533	76,498				37,74															
03:11:25.959	COM3_115200	2000-0-0 1:25:32.325	0,503	-0,022	1,017	26,184	-0,122	28,687	-37,623	-38,386	148,925				39,60															
03:11:25.976	COM8_115200	2000-0-0 1:23:13.640	0,696	-0,114	1,257	-16,724	-0,977	-40,710	22,901	-45,099	75,591				37,83															
03:11:25.982	COM3_115200	2000-0-0 1:25:32.345	0,469	-0,025	1,000	29,602	5,005	32,898	-36,920	-37,826	149,381				39,63															
03:11:25.992	COM8_115200	2000-0-0 1:23:13.660	0,700	-0,105	1,271	-15,137	4,578	-43,457	22,939	-44,577	74,652				37,64															
03:11:26.009	COM3_115200	2000-0-0 1:25:32.365	0,497	-0,019	1,068	31,616	5,310	36,865	-36,216	-37,200	149,908				39,47															
03:11:26.026	COM8_115200	2000-0-0 1:23:13.680	0,772	-0,076	1,253	-17,639	5,615	-43,701	22,950	-43,973	73,724				37,74															
03:11:26.026	COM3_115200	2000-0-0 1:25:32.385	0,499	-0,078	1,043	32,227	8,850	37,354	-35,519	-36,541	150,458				39,66															
03:11:26.042	COM8_115200	2000-0-0 1:23:13.700	0,766	-0,081	1,262	-16,724	8,362	-46,387	22,961	-43,358	72,773				37,80															
03:11:26.042	COM3_115200	2000-0-0 1:25:32.405	0,580	-0,083	1,033	37,048	17,517	38,452	-34,711	-35,755	150,914				39,47															
03:11:26.059	COM8_115200	2000-0-0 1:23:13.720	0,754	-0,068	1,251	-15,930	18,738	-50,781	22,989	-42,556	71,823				37,83															
03:11:26.060	COM3_115200	2000-0-0 1:25:32.425	0,500	-0,101	0,977	38,452	30,151	41,565	-33,805	-34,783	151,304				39,57															
03:11:26.083	COM8_115200	2000-0-0 1:23:13.740	0,716	-0,032	1,249	-14,587	28,076	-53,589	23,005	-41,567	70,906				37,80															
03:11:26.092	COM3_115200	2000-0-0 1:25:32.445	0,364	-0,089	1,088	41,321	37,537	46,509	-32,822	-33,613	151,639				39,47															
03:11:26.092	COM8_115200	2000-0-0 1:23:13.760	0,747	-0,012	1,271	-13,367	32,104	-57,251	23,060	-40,446	69,966				37,74															
03:11:26.109	COM3_115200	2000-0-0 1:25:32.465	0,530	-0,116	1,170	36,011	24,536	48,218	-31,992	-32,498	152,166				39,60															
03:11:26.129	COM3_115200	2000-0-0 1:25:32.485	0,562	-0,174	1,089	35,461	27,405	45,959	-31,289	-31,520	152,748				39,60															
03:11:26.130	COM8_115200	2000-0-0 1:23:13.780	0,765	0,023	1,272	-15,198	28,198	-57,678	23,104	-39,342	68,989				37,64															
03:11:26.142	COM8_115200	2000-0-0 1:23:13.800	0,843	0,047	1,265	-14,343	22,949	-57,007	23,176	-38,342	67,972				37,99															
03:11:26.153	COM3_115200	2000-0-0 1:25:32.505	0,624	-0,185	1,027	38,940	39,917	47,913	-30,487	-30,366	153,226				39,60															
03:11:26.159	COM8_115200	2000-0-0 1:23:13.820	0,791	0,040	1,252	-12,451	22,766	-59,448	23,280	-37,392	66,907				37,71															
03:11:26.159	COM3_115200	2000-0-0 1:25:32.525	0,282	-0,177	1,022	37,537	48,523	54,382	-29,663	-29,009	153,704				39,54															
03:11:26.175	COM8_115200	2000-0-0 1:23:13.840	0,688	0,074	1,285	-12,390	26,611	-61,401	23,412	-36,376	65,847				37,71															
03:11:26.191	COM3_115200	2000-0-0 1:25:32.545	0,433	-0,110	1,186	31,982	25,208	54,077	-28,993	-27,801	154,347				39,57															
03:11:26.192	COM8_115200	2000-0-0 1:23:13.860	0,805	0,098	1,313	-16,785	19,836	-61,646	23,516	-35,436	64,715				37,80															
03:11:26.209	COM3_115200	2000-0-0 1:25:32.565	0,512	-0,191	1,156	15,747	3,967	52,429	-28,740	-27,059	155,292				39,41															
03:11:26.225	COM8_115200	2000-0-0 1:23:13.880	0,799	0,138	1,285	-22,644	13,977	-61,096	23,511	-34,607	63,550				37,74															
03:11:26.225	COM3_115200	2000-0-0 1:25:32.585	0,483	-0,285	1,074	20,447	10,864	49,438	-28,564	-26,411	156,204				39,60															
03:11:26.259	COM3_115200	2000-0-0 1:25:32.605	0,461	-0,299	1,050	33,020	0,305	50,415	-28,169	-25,790	157,110				39,54															
03:11:26.292	COM8_115200	2000-0-0 1:23:13.900	0,796	0,148	1,290	-22,705	20,264	-60,242	23,456	-33,755	62,430				37,80															
03:11:26.292	COM8_115200	2000-0-0 1:23:13.920	0,761	0,161	1,327	-26,245	11,475	-61,829	23,368	-32,964	61,265				37,80															
03:11:26.292	COM3_115200	2000-0-0 1:25:32.625	0,387	-0,198	1,149	37,720	-20,264	53,284	-27,702	-25,521	158,275				39,73															
03:11:26.292	COM3_115200	2000-0-0 1:25:32.645	0,443	-0,251	1,218	36,316	-23,865	52,063	-27,301	-25,450	159,532				39,63															
03:11:26.325	COM3_115200	2000-0-0 1:25:32.665	0,530	-0,314	1,132	38,879	-8,728	49,744	-26,829	-25,208	160,670				39,73															
03:11:26.325	COM8_115200	2000-0-0 1:23:13.940	0,758	0,160	1,335	-28,076	7,019	-62,805	23,264	-32,300	60,018				37,77															
03:11:26.325	COM3_115200	2000-0-0 1:25:32.685	0,520	-0,338	1,056	43,274	8,179	48,279	-26,219	-24,708	161,603				39,57															
03:11:26.342	COM8_115200	2000-0-0 1:23:13.960	0,731	0,216	1,289	-31,799	4,883	-62,927	23,121	-31,679	58,738				37,77															
03:11:26.342	COM8_115200	2000-0-0 1:23:13.980	0,783	0,239	1,272	-32,532	4,578	-61,584	22,934	-31,108	57,464				37,68															
03:11:26.342	COM8_115200	2000-0-0 1:23:14.000	0,653	0,257	1,243	-36,072	6,348	-59,143	22,676	-30,536	56,250				37,77															
03:11:26.342	COM3_115200	2000-0-0 1:25:32.705	0,364	-0,356	1,092	46,509	13,123	49,866	-25,505	-24,044	162,477				39,70															
03:11:26.376	COM3_115200	2000-0-0 1:25:32.725	0,363	-0,321	1,208	50,659	5,615	51,453	-24,758	-23,461	163,400				39,57															
03:11:26.376	COM8_115200	2000-0-0 1:23:14.020	0,637	0,250	1,369	-37,598	-1,587	-58,716	22,379	-30,059	55,020				37,74															
03:11:26.383	COM8_115200	2000-0-0 1:23:14.040	0,757	0,280	1,321	-43,823	-10,254	-56,335	22,011	-29,729	53,773				37,80															
03:11:26.392	COM3_115200	2000-0-0 1:25:32.745	0,467	-0,345	1,178	44,495	-6,531	45,593	-24,077	-23,082	164,361				39,60															
03:11:26.392	COM8_115200	2000-0-0 1:23:14.060	0,714	0,314	1,326	-46,570	-11,047	-53,223	21,544	-29,559	52,537				37,77															
03:11:26.408	COM3_115200	2000-0-0 1:25:32.765	0,455	-0,428	1,144	47,058	4,456	44,067	-23,390	-22,698	165,240				39,70															
03:11:26.409	COM8_115200	2000-0-0 1:23:14.080	0,551	0,305	1,370	-41,626	-4,639	-55,420	21,132	-29,262	51,345				37,71															
03:11:26.425	COM3_115200	2000-0-0 1:25:32.785	0,250	-0,415	1,173	50,720	23,193	45,898	-22,582	-22,006	165,987				39,60															
03:11:26.441	COM8_115200	2000-0-0 1:23:14.100	0,610	0,287	1,397	-39,368	-13,550	-52,307	20,781	-29,037	50,147				37,71															
03:11:26.459	COM8_115200	2000-0-0 1:23:14.120	0,784	0,342	1,379	-40,344	-19,287	-52,307	20,468	-28,993	48,900				37,77															
03:11:26.459	COM3_115200	2000-0-0 1:25:32.805	0,273	-0,354	1,263	49,988	22,339	42,297	-21,736	-21,198	166,679				39,60															
03:11:26.459	COM3_115200	2000-0-0 1:25:32.825	0,452	-0,379	1,230	43,274	7,629	35,645	-20,989	-20,632	167,360				39,47															
03:11:26.484	COM8_115200	2000-0-0 1:23:14.140	0,758	0,417	1,298	-39,978	-5,432	-52,673	20,121	-28,784	47,730				37,90															
03:11:26.484	COM3_115200	2000-0-0 1:25:32.845	0,429	-0,502	1,213	43,030	11,780	39,124	-20,330	-20,121	168,019				39,66															
03:11:26.493	COM8_115200	2000-0-0 1:23:14.160	0,330	0,382	1,369	-32,227	5,005	-56,641	19,874	-28,328	46,599				37,87															
03:11:26.509	COM3_115200	2000-0-0 1:25:32.865	0,206	-0,464	1,192	47,363	27,161	43,762	-19,600	-19,424	168,673				39,51															
03:11:26.509	COM8_115200	2000-0-0 1:23:14.180	0,588	0,326	1,464	-31,189	-12,939	-49,561	19,759	-28,059	45,428				37,74															
03:11:26.525	COM8_115200	2000-0-0 1:23:14.200	0,619	0,408	1,399	-40,710	-26,489	-51,575	19,501	-28,141	44,165				37,64															
03:11:26.542	COM3_115200	2000-0-0 1:25:32.885	0,275	-0,412	1,337	45,410	5,005	41,382	-18,907	-18,847	169,453				39,57															
03:11:26.542	COM3_115200	2000-0-0 1:25:32.905	0,375	-0,435	1,323	36,072	-5,798	40,710	-18,369	-18,578	170,283				39,70															
03:11:26.558	COM8_115200	2000-0-0 1:23:14.220	0,560	0,463	1,322	-34,485	5,066	-47,913	19,204	-27,889	43,105				37,80															
03:11:26.558	COM3_115200	2000-0-0 1:25:32.925	0,348	-0,551	1,212	35,950	4,883	37,354	-17,919	-18,320	171,046				39,63															
03:11:26.575	COM8_115200	2000-0-0 1:23:14.240	0,436	0,397	1,407	-29,541	5,127	-47,119	18,968	-27,394	42,149				37,90															
03:11:26.592	COM3_115200	2000-0-0 1:25:32.945	0,277	-0,547	1,214	40,649	11,230	36,377	-17,380	-17,908	171,738				39,73															
03:11:26.592	COM8_115200	2000-0-0 1:23:14.260	0,611	0,382	1,456	-33,142	-10,376	-42,358	18,721	-27,109	41,215				37,68															
03:11:26.609	COM3_115200	2000-0-0 1:25:32.965	0,322	-0,490	1,272	38,635	3,235	34,729	-16,826	-17,534	172,414				39,63															
03:11:26.625	COM8_115200	2000-0-0 1:23:14.280	0,559	0,442	1,405	-40,039	-6,104	-40,161	18,347	-26,971	40,292				37,77															
03:11:26.625	COM8_115200	2000-0-0 1:23:14.300	0,613	0,475	1,354	-36,255	10,864	-39,429	17,924	-26,603	39,490				37,77															
03:11:26.642	COM3_115200	2000-0-0 1:25:32.985	0,314	-0,542	1,269	35,645	6,042	29,114	-16,304	-17,232	173,035				39,47															
03:11:26.659	COM8_115200	2000-0-0 1:23:14.320	0,452	0,529	1,411	-38,940	8,972	-40,466	17,485	-26,109	38,727				37,80															
03:11:26.659	COM3_115200	2000-0-0 1:25:33.005	0,357	-0,596	1,259	40,222	11,597	31,128	-15,754	-16,831	173,617				39,60															
03:11:26.659	COM3_115200	2000-0-0 1:25:33.025	0,292	-0,623	1,260	41,992	13,977	31,128	-15,172	-16,408	174,161				39,44															
03:11:26.675	COM8_115200	2000-0-0 1:23:14.340	0,632	0,494	1,421	-34,668	-2,808	-38,269	17,139	-25,779	37,936				37,74															
03:11:26.685	COM3_115200	2000-0-0 1:25:33.045	0,348	-0,629	1,293	44,556	9,277	27,771	-14,546	-16,002	174,666				39,60															
03:11:26.692	COM8_115200	2000-0-0 1:23:14.360	0,648	0,554	1,388	-40,405	-4,333	-36,499	16,721	-25,626	37,145				37,80															
03:11:26.709	COM3_115200	2000-0-0 1:25:33.065	0,308	-0,619	1,323	44,434	10,559	25,208	-13,887	-15,677	175,133				39,44															
03:11:26.725	COM3_115200	2000-0-0 1:25:33.085	0,329	-0,677	1,314	45,288	17,578	26,611	-13,228	-15,222	175,600				39,57															
03:11:26.725	COM8_115200	2000-0-0 1:23:14.380	0,653	0,592	1,390	-37,842	10,193	-39,001	16,298	-25,274	36,376				37,77															
03:11:26.742	COM8_115200	2000-0-0 1:23:14.400	0,590	0,627	1,387	-38,879	16,541	-40,405	15,892	-24,708	35,645				37,71															
03:11:26.742	COM3_115200	2000-0-0 1:25:33.105	0,384	-0,701	1,290	46,936	16,235	26,062	-12,557	-14,755	176,028				39,63															
03:11:26.759	COM8_115200	2000-0-0 1:23:14.420	0,348	0,574	1,478	-31,921	18,127	-44,617	15,551	-24,115	34,865				37,77															
03:11:26.759	COM3_115200	2000-0-0 1:25:33.125	0,300	-0,726	1,288	48,706	13,794	27,466	-11,876	-14,376	176,506				39,51															
03:11:26.775	COM8_115200	2000-0-0 1:23:14.440	0,535	0,620	1,481	-35,706	2,991	-45,532	15,337	-23,654	33,981				37,80															
03:11:26.785	COM3_115200	2000-0-0 1:25:33.145	0,295	-0,732	1,357	53,528	7,813	28,931	-11,140	-14,024	177,056				39,57															
03:11:26.792	COM8_115200	2000-0-0 1:23:14.460	0,534	0,691	1,456	-41,992	-1,648	-41,016	14,947	-23,412	33,096				37,74															
03:11:26.808	COM3_115200	2000-0-0 1:25:33.165	0,185	-0,750	1,417	52,673	6,042	30,151	-10,415	-13,766	177,599				39,63															
03:11:26.825	COM3_115200	2000-0-0 1:25:33.185	0,335	-0,721	1,425	49,194	15,320	28,625	-9,717	-13,420	178,121				39,57															
03:11:26.825	COM8_115200	2000-0-0 1:23:14.480	0,565	0,691	1,416	-40,405	3,540	-42,358	14,573	-23,132	32,234				37,80															
03:11:26.850	COM8_115200	2000-0-0 1:23:14.500	0,567	0,687	1,459	-40,039	8,179	-45,288	14,200	-22,780	31,349				37,68															
03:11:26.859	COM3_115200	2000-0-0 1:25:33.205	0,416	-0,718	1,388	42,542	17,090	28,931	-9,124	-12,991	178,660				39,51															
03:11:26.864	COM8_115200	2000-0-0 1:23:14.520	0,575	0,681	1,474	-34,851	21,057	-46,570	13,931	-22,176	30,493				37,74															
03:11:26.889	COM3_115200	2000-0-0 1:25:33.225	0,353	-0,834	1,377	43,152	10,498	30,579	-8,630	-12,585	179,253				39,66															
03:11:26.891	COM3_115200	2000-0-0 1:25:33.245	0,255	-0,770	1,468	44,128	11,353	31,128	-8,119	-12,255	179,835				39,60															
03:11:26.892	COM8_115200	2000-0-0 1:23:14.540	0,329	0,669	1,500	-29,236	26,855	-48,035	13,716	-21,440	29,652				37,80															
03:11:26.908	COM8_115200	2000-0-0 1:23:14.560	0,365	0,644	1,570	-26,001	17,578	-52,307	13,656	-20,737	28,696				37,80															
03:11:26.908	COM8_115200	2000-0-0 1:23:14.580	0,507	0,683	1,508	-33,508	3,479	-46,265	13,508	-20,319	27,751				37,74															
03:11:26.924	COM3_115200	2000-0-0 1:25:33.265	0,309	-0,656	1,494	40,344	21,057	25,757	-7,608	-11,876	-179,681				39,63															
03:11:26.942	COM3_115200	2000-0-0 1:25:33.285	0,250	-0,705	1,542	38,574	20,996	23,254	-7,158	-11,398	-179,209				39,47															
03:11:26.942	COM8_115200	2000-0-0 1:23:14.600	0,388	0,746	1,493	-31,677	10,254	-47,424	13,277	-19,968	26,840				37,87															
03:11:26.958	COM8_115200	2000-0-0 1:23:14.620	0,452	0,751	1,542	-30,457	12,756	-48,462	13,107	-19,473	25,911				37,74															
03:11:26.958	COM3_115200	2000-0-0 1:25:33.305	0,293	-0,874	1,487	40,833	31,006	31,189	-6,784	-10,739	-178,748				39,51															
03:11:26.958	COM3_115200	2000-0-0 1:25:33.325	0,210	-0,757	1,508	39,551	6,958	29,419	-6,339	-10,388	-178,187				39,63															
03:11:26.975	COM8_115200	2000-0-0 1:23:14.640	0,416	0,779	1,565	-33,875	14,832	-45,288	12,892	-18,935	25,060				37,83															
03:11:26.992	COM3_115200	2000-0-0 1:25:33.345	0,220	-0,691	1,608	41,748	7,019	24,475	-5,861	-10,223	-177,660				39,54															
03:11:27.008	COM8_115200	2000-0-0 1:23:14.660	0,360	0,722	1,553	-29,724	22,583	-43,213	12,689	-18,336	24,252				37,80															
03:11:27.025	COM3_115200	2000-0-0 1:25:33.365	0,354	-0,703	1,513	38,086	5,737	23,865	-5,405	-10,031	-177,198				39,57															
03:11:27.025	COM3_115200	2000-0-0 1:25:33.385	0,152	-0,902	1,512	40,588	0,061	28,687	-4,977	-9,888	-176,660				39,54															
03:11:27.025	COM8_115200	2000-0-0 1:23:14.680	0,409	0,698	1,585	-30,212	15,747	-44,250	12,464	-17,770	23,456				37,80															
03:11:27.025	COM8_115200	2000-0-0 1:23:14.700	0,326	0,773	1,613	-31,006	9,827	-41,260	12,250	-17,298	22,692				37,64															
03:11:27.042	COM3_115200	2000-0-0 1:25:33.405	0,248	-0,690	1,590	45,288	-8,728	21,606	-4,438	-9,970	-176,182				39,44															
03:11:27.058	COM8_115200	2000-0-0 1:23:14.720	0,412	0,708	1,561	-30,945	10,254	-35,706	12,014	-16,930	21,962				37,77															
03:11:27.058	COM3_115200	2000-0-0 1:25:33.425	0,310	-0,773	1,501	41,626	-4,395	23,010	-3,917	-10,047	-175,765				39,70															
03:11:27.075	COM8_115200	2000-0-0 1:23:14.740	0,432	0,797	1,590	-28,564	14,038	-36,743	11,750	-16,512	21,324				37,77															
03:11:27.088	COM3_115200	2000-0-0 1:25:33.445	0,202	-0,888	1,538	46,692	-6,592	23,254	-3,384	-10,102	-175,303				39,51															
03:11:27.092	COM8_115200	2000-0-0 1:23:14.760	0,322	0,890	1,641	-29,968	14,343	-35,095	11,530	-15,991	20,726				37,93															
03:11:27.108	COM3_115200	2000-0-0 1:25:33.465	0,237	-0,820	1,595	49,255	-16,235	25,208	-2,796	-10,305	-174,831				39,54															
03:11:27.108	COM8_115200	2000-0-0 1:23:14.780	0,310	0,789	1,593	-29,846	21,240	-30,701	11,283	-15,480	20,138				37,80															
03:11:27.125	COM3_115200	2000-0-0 1:25:33.485	0,155	-0,886	1,565	51,086	-18,372	28,748	-2,197	-10,591	-174,293				39,44															
03:11:27.142	COM8_115200	2000-0-0 1:23:14.800	0,361	0,796	1,585	-29,053	28,625	-34,241	11,008	-14,865	19,583				37,87															
03:11:27.142	COM3_115200	2000-0-0 1:25:33.505	0,147	-0,798	1,608	53,833	-12,207	26,123	-1,527	-10,849	-173,760				39,54															
03:11:27.158	COM8_115200	2000-0-0 1:23:14.820	0,373	0,942	1,667	-33,142	29,785	-38,391	10,723	-14,068	19,045				37,77															
03:11:27.158	COM3_115200	2000-0-0 1:25:33.525	0,384	-0,875	1,610	52,002	-9,277	26,428	-0,906	-10,981	-173,221				39,63															
03:11:27.176	COM8_115200	2000-0-0 1:23:14.840	0,253	0,892	1,644	-31,616	32,593	-36,621	10,410	-13,255	18,446				37,80															
03:11:27.192	COM3_115200	2000-0-0 1:25:33.545	0,134	-1,046	1,559	50,415	-11,047	36,804	-0,352	-11,096	-172,595				39,60															
03:11:27.192	COM8_115200	2000-0-0 1:23:14.860	0,299	0,834	1,668	-26,733	33,691	-40,222	10,195	-12,458	17,809				37,83															
03:11:27.192	COM3_115200	2000-0-0 1:25:33.565	0,000	-0,818	1,722	59,448	-22,583	37,720	0,286	-11,464	-171,815				39,51															
03:11:27.219	COM8_115200	2000-0-0 1:23:14.880	0,319	0,902	1,697	-32,104	19,226	-41,504	9,943	-11,810	17,139				37,83															
03:11:27.225	COM3_115200	2000-0-0 1:25:33.585	0,127	-0,774	1,742	60,059	-13,611	34,180	0,983	-11,777	-171,096				39,57															
03:11:27.225	COM8_115200	2000-0-0 1:23:14.900	0,356	0,910	1,722	-32,715	24,292	-40,466	9,651	-11,195	16,458				37,71															
03:11:27.242	COM3_115200	2000-0-0 1:25:33.605	0,142	-0,791	1,666	54,626	-5,615	30,334	1,670	-11,871	-170,475				39,60															
03:11:27.258	COM3_115200	2000-0-0 1:25:33.625	0,124	-0,923	1,720	52,490	-14,526	33,264	2,225	-12,036	-169,783				39,57															
03:11:27.275	COM8_115200	2000-0-0 1:23:14.920	0,289	0,854	1,730	-30,334	26,917	-41,443	9,355	-10,536	15,754				37,64															
03:11:27.275	COM8_115200	2000-0-0 1:23:14.940	0,229	0,869	1,784	-28,137	23,438	-43,884	9,124	-9,910	15,035				37,77															
03:11:27.291	COM3_115200	2000-0-0 1:25:33.645	0,128	-0,916	1,728	49,988	-17,395	26,184	2,774	-12,316	-169,211				39,57															
03:11:27.292	COM8_115200	2000-0-0 1:23:14.960	0,359	0,877	1,822	-31,982	16,174	-43,823	8,877	-9,388	14,277				37,74															
03:11:27.292	COM3_115200	2000-0-0 1:25:33.665	0,182	-0,874	1,735	43,213	-6,165	18,250	3,257	-12,431	-168,805				39,57															
03:11:27.308	COM8_115200	2000-0-0 1:23:14.980	0,299	0,878	1,831	-28,137	13,550	-43,030	8,630	-8,959	13,513				37,71															
03:11:27.325	COM3_115200	2000-0-0 1:25:33.685	0,231	-0,881	1,732	35,461	-4,333	14,587	3,604	-12,475	-168,497				39,54															
03:11:27.342	COM8_115200	2000-0-0 1:23:15.000	0,244	0,874	1,813	-25,269	7,507	-42,725	8,438	-8,613	12,750				37,77															
03:11:27.358	COM3_115200	2000-0-0 1:25:33.705	0,018	-0,935	1,817	30,823	-14,160	22,217	3,779	-12,623	-168,096				39,57															
03:11:27.358	COM3_115200	2000-0-0 1:25:33.725	0,032	-0,867	1,836	29,480	-10,681	19,348	3,917	-12,799	-167,657				39,41															
03:11:27.375	COM8_115200	2000-0-0 1:23:15.020	0,222	0,874	1,837	-24,414	0,000	-40,283	8,284	-8,470	11,986				37,83															
03:11:27.375	COM8_115200	2000-0-0 1:23:15.040	0,319	0,880	1,803	-26,611	2,930	-34,607	8,086	-8,328	11,316				37,71															
03:11:27.391	COM3_115200	2000-0-0 1:25:33.745	0,215	-0,882	1,773	25,391	4,211	11,230	4,032	-12,711	-167,355				39,66															
03:11:27.391	COM3_115200	2000-0-0 1:25:33.765	0,053	-0,946	1,788	18,921	-6,226	13,306	4,016	-12,678	-167,080				39,63															
03:11:27.408	COM8_115200	2000-0-0 1:23:15.060	0,260	0,861	1,849	-19,714	4,639	-30,151	7,927	-8,130	10,756				37,74															
03:11:27.425	COM3_115200	2000-0-0 1:25:33.785	0,039	-0,891	1,817	16,357	-6,714	9,827	3,933	-12,739	-166,822				39,57															
03:11:27.425	COM8_115200	2000-0-0 1:23:15.080	0,199	0,868	1,856	-16,907	-1,038	-26,184	7,861	-8,020	10,261				37,80															
03:11:27.441	COM8_115200	2000-0-0 1:23:15.100	0,318	0,882	1,873	-18,555	-4,639	-17,700	7,778	-8,026	9,888				37,74															
03:11:27.442	COM3_115200	2000-0-0 1:25:33.805	0,253	-0,890	1,806	14,893	-0,061	-0,488	3,856	-12,673	-166,734				39,60															
03:11:27.458	COM8_115200	2000-0-0 1:23:15.120	0,297	0,887	1,864	-13,306	-3,967	-7,996	7,707	-8,064	9,706				37,77															
03:11:27.487	COM8_115200	2000-0-0 1:23:15.140	0,188	0,932	1,902	-8,179	-8,728	0,549	7,745	-8,168	9,695				37,87															
03:11:27.492	COM3_115200	2000-0-0 1:25:33.825	0,146	-0,959	1,758	7,568	0,854	0,000	3,702	-12,513	-166,761				39,70															
03:11:27.492	COM3_115200	2000-0-0 1:25:33.845	0,040	-0,955	1,815	7,385	-4,456	1,160	3,483	-12,464	-166,734				39,57															
03:11:27.508	COM8_115200	2000-0-0 1:23:15.160	0,293	0,913	1,883	-8,972	-12,939	9,521	7,778	-8,410	9,838				37,68															
03:11:27.508	COM3_115200	2000-0-0 1:25:33.865	0,172	-0,931	1,827	10,071	0,671	-2,319	3,296	-12,431	-166,740				39,66															
03:11:27.541	COM8_115200	2000-0-0 1:23:15.180	0,224	0,933	1,896	-6,165	-12,085	12,024	7,811	-8,674	10,085				37,64															
03:11:27.541	COM3_115200	2000-0-0 1:25:33.885	0,139	-1,034	1,789	6,042	4,272	-1,526	3,098	-12,200	-166,805				39,54															
03:11:27.541	COM3_115200	2000-0-0 1:25:33.905	0,051	-1,017	1,860	7,751	-1,709	5,066	2,845	-12,107	-166,718				39,51															
03:11:27.558	COM8_115200	2000-0-0 1:23:15.200	0,197	0,977	1,879	-4,944	-17,578	9,338	7,905	-8,970	10,305				37,68															
03:11:27.558	COM8_115200	2000-0-0 1:23:15.220	0,238	0,973	1,896	-4,639	-23,071	2,991	8,031	-9,393	10,399				37,77															
03:11:27.558	COM3_115200	2000-0-0 1:25:33.925	-0,014	-1,000	1,878	9,888	2,197	12,695	2,615	-12,036	-166,487				39,57															
03:11:27.575	COM8_115200	2000-0-0 1:23:15.240	0,156	1,021	1,876	-11,108	-25,818	-5,005	8,091	-9,800	10,338				37,68															
03:11:27.575	COM3_115200	2000-0-0 1:25:33.945	0,088	-0,987	1,872	12,390	10,864	10,803	2,428	-11,772	-166,234				39,51															
03:11:27.591	COM8_115200	2000-0-0 1:23:15.260	0,190	0,993	1,870	-5,737	-14,404	-2,502	8,174	-10,151	10,250				37,77															
03:11:27.608	COM3_115200	2000-0-0 1:25:33.965	0,078	-1,007	1,860	13,489	24,719	2,563	2,307	-11,283	-166,069				39,51															
03:11:27.608	COM8_115200	2000-0-0 1:23:15.280	0,336	0,949	1,868	-4,395	-10,437	-0,549	8,311	-10,327	10,228				37,80															
03:11:27.625	COM3_115200	2000-0-0 1:25:33.985	0,236	-0,942	1,838	8,484	36,682	-17,578	2,197	-10,525	-166,240				39,57															
03:11:27.641	COM8_115200	2000-0-0 1:23:15.300	0,306	0,948	1,895	-1,404	-5,127	-0,122	8,476	-10,399	10,234				37,71															
03:11:27.641	COM3_115200	2000-0-0 1:25:34.005	0,305	-0,894	1,854	-0,916	28,137	-30,090	1,978	-9,750	-166,740				39,60															
03:11:27.658	COM8_115200	2000-0-0 1:23:15.320	0,254	0,958	1,880	1,404	-7,385	4,028	8,712	-10,464	10,294				37,71															
03:11:27.658	COM3_115200	2000-0-0 1:25:34.025	0,225	-0,840	1,869	-8,850	23,682	-37,415	1,626	-9,174	-167,448				39,57															
03:11:27.675	COM8_115200	2000-0-0 1:23:15.340	0,162	0,948	1,849	1,282	-10,376	12,573	8,921	-10,646	10,486				37,80															
03:11:27.675	COM3_115200	2000-0-0 1:25:34.045	0,222	-0,848	1,887	-12,268	15,442	-38,086	1,170	-8,696	-168,217				39,51															
03:11:27.691	COM8_115200	2000-0-0 1:23:15.360	0,096	0,917	1,840	3,113	1,343	25,391	9,113	-10,728	10,904				37,93															
03:11:27.708	COM3_115200	2000-0-0 1:25:34.065	0,115	-0,896	1,924	-11,902	1,282	-38,818	0,709	-8,520	-168,992				39,60															
03:11:27.741	COM8_115200	2000-0-0 1:23:15.380	0,438	0,876	1,750	2,014	13,916	48,279	9,223	-10,624	11,744				37,71															
03:11:27.741	COM8_115200	2000-0-0 1:23:15.400	0,254	0,852	1,809	12,451	36,072	61,096	9,366	-10,168	13,035				37,83															
03:11:27.741	COM3_115200	2000-0-0 1:25:34.085	0,179	-0,884	1,954	-11,169	-6,104	-42,664	0,286	-8,525	-169,832				39,57															
03:11:27.741	COM3_115200	2000-0-0 1:25:34.105	0,294	-0,824	1,887	-13,123	-8,972	-52,002	-0,110	-8,668	-170,815				39,47															
03:11:27.758	COM8_115200	2000-0-0 1:23:15.420	0,189	0,900	1,920	10,620	17,517	60,547	9,602	-9,794	14,376				37,80															
03:11:27.758	COM3_115200	2000-0-0 1:25:34.125	0,320	-0,776	1,821	-24,902	2,197	-54,077	-0,643	-8,641	-171,936				39,54															
03:11:27.774	COM8_115200	2000-0-0 1:23:15.440	0,188	0,809	1,952	7,996	4,700	56,885	9,772	-9,794	15,590				37,93															
03:11:27.774	COM3_115200	2000-0-0 1:25:34.145	0,135	-0,908	1,901	-28,381	-13,550	-44,189	-1,329	-8,745	-172,914				39,57															
03:11:27.792	COM8_115200	2000-0-0 1:23:15.460	0,700	0,722	1,813	12,024	6,409	68,848	9,937	-9,888	16,919				37,71															
03:11:27.808	COM3_115200	2000-0-0 1:25:34.165	0,065	-0,908	1,922	-28,870	-34,546	-46,143	-2,043	-9,278	-173,804				39,66															
03:11:27.808	COM8_115200	2000-0-0 1:23:15.480	0,204	0,953	1,859	13,489	19,043	65,918	10,140	-9,761	18,402				37,74															
03:11:27.824	COM3_115200	2000-0-0 1:25:34.185	0,068	-0,757	1,886	-29,541	-23,743	-55,237	-2,747	-9,833	-174,831				39,66															
03:11:27.841	COM8_115200	2000-0-0 1:23:15.500	0,202	0,945	1,908	20,569	-2,747	60,120	10,453	-9,838	19,693				37,74															
03:11:27.841	COM3_115200	2000-0-0 1:25:34.205	0,416	-0,648	1,800	-35,217	-3,906	-69,885	-3,406	-10,102	-176,138				39,63															
03:11:27.858	COM8_115200	2000-0-0 1:23:15.520	0,502	0,750	1,982	24,536	2,625	56,763	10,871	-10,042	20,852				37,90															
03:11:27.858	COM3_115200	2000-0-0 1:25:34.225	0,377	-0,926	1,702	-46,997	-0,732	-61,584	-4,285	-10,085	-177,495				39,47															
03:11:27.882	COM8_115200	2000-0-0 1:23:15.540	0,471	0,794	1,900	27,222	-4,883	66,711	11,310	-10,278	22,154				37,83															
03:11:27.885	COM3_115200	2000-0-0 1:25:34.245	0,245	-0,907	1,735	-35,767	-20,264	-57,861	-5,087	-10,426	-178,682				39,54															
03:11:27.903	COM8_115200	2000-0-0 1:23:15.560	0,274	0,808	1,826	31,799	-15,320	69,885	11,816	-10,734	23,511				37,68															
03:11:27.907	COM3_115200	2000-0-0 1:25:34.265	0,142	-0,688	1,865	-32,654	-11,719	-63,293	-5,773	-10,822	-179,868				39,60															
03:11:27.919	COM8_115200	2000-0-0 1:23:15.580	0,341	0,782	1,857	37,292	-29,907	67,566	12,404	-11,519	24,796				37,71															
03:11:27.925	COM3_115200	2000-0-0 1:25:34.285	0,508	-0,549	1,897	-35,889	6,042	-81,848	-6,400	-10,953	178,632				39,73															
03:11:27.942	COM3_115200	2000-0-0 1:25:34.305	0,662	-0,677	1,716	-52,795	34,607	-74,951	-7,180	-10,591	176,924				39,66															
03:11:27.958	COM8_115200	2000-0-0 1:23:15.600	0,443	0,673	1,826	41,321	-20,020	72,693	13,085	-12,277	26,082				37,71															
03:11:27.958	COM8_115200	2000-0-0 1:23:15.620	0,460	0,617	1,724	47,119	-4,395	85,144	13,771	-12,810	27,653				37,71															
03:11:27.975	COM8_115200	2000-0-0 1:23:15.640	0,347	0,700	1,669	46,692	4,700	88,196	14,436	-13,162	29,432				37,74															
03:11:27.975	COM3_115200	2000-0-0 1:25:34.325	0,343	-0,921	1,746	-45,959	5,920	-62,256	-8,146	-10,322	175,518				39,51															
03:11:27.975	COM3_115200	2000-0-0 1:25:34.345	0,172	-0,623	1,875	-53,040	-38,452	-57,251	-9,086	-10,970	174,441				39,47															
03:11:27.991	COM8_115200	2000-0-0 1:23:15.660	0,330	0,667	1,651	46,448	20,935	85,815	15,051	-13,326	31,256				37,71															
03:11:28.008	COM3_115200	2000-0-0 1:25:34.365	0,216	-0,585	1,942	-60,425	-40,161	-63,660	-10,195	-11,992	173,359				39,51															
03:11:28.024	COM3_115200	2000-0-0 1:25:34.385	0,490	-0,580	1,656	-75,195	0,854	-64,270	-11,393	-12,546	172,101				39,60															
03:11:28.024	COM8_115200	2000-0-0 1:23:15.680	0,399	0,649	1,770	45,166	42,053	91,003	15,595	-13,096	33,223				37,71															
03:11:28.041	COM8_115200	2000-0-0 1:23:15.700	0,783	0,616	1,751	43,640	49,927	98,877	16,078	-12,673	35,409				37,71															
03:11:28.058	COM3_115200	2000-0-0 1:25:34.405	0,508	-0,936	1,532	-80,444	10,620	-55,664	-12,898	-12,464	170,914				39,51															
03:11:28.058	COM8_115200	2000-0-0 1:23:15.720	0,714	0,643	1,814	34,607	55,542	99,182	16,414	-12,151	37,694				37,74															
03:11:28.058	COM3_115200	2000-0-0 1:25:34.425	0,433	-0,848	1,467	-70,129	-9,155	-54,443	-14,238	-12,700	169,849				39,63															
03:11:28.075	COM8_115200	2000-0-0 1:23:15.740	0,554	0,701	1,811	39,429	42,358	94,482	16,765	-11,788	39,902				37,68															
03:11:28.108	COM8_115200	2000-0-0 1:23:15.760	0,742	0,604	1,891	46,753	24,963	89,294	17,276	-11,788	41,880				37,68															
03:11:28.108	COM3_115200	2000-0-0 1:25:34.445	0,333	-0,666	1,692	-72,632	-28,992	-46,509	-15,518	-13,376	169,008				39,73															
03:11:28.108	COM3_115200	2000-0-0 1:25:34.465	0,541	-0,705	1,587	-82,214	-8,118	-45,898	-16,990	-13,991	168,206				39,51															
03:11:28.125	COM8_115200	2000-0-0 1:23:15.780	0,801	0,592	1,845	47,852	23,193	88,562	17,847	-11,871	43,802				37,61															
03:11:28.125	COM3_115200	2000-0-0 1:25:34.485	0,572	-0,874	1,358	-88,440	18,311	-36,072	-18,644	-13,986	167,344				39,57															
03:11:28.141	COM8_115200	2000-0-0 1:23:15.800	0,875	0,602	1,753	52,795	14,099	86,060	18,534	-12,118	45,632				37,80															
03:11:28.141	COM3_115200	2000-0-0 1:25:34.505	0,346	-0,919	1,426	-73,425	5,005	-39,307	-20,110	-14,052	166,520				39,54															
03:11:28.175	COM8_115200	2000-0-0 1:23:15.820	0,773	0,675	1,733	57,922	-3,418	80,139	19,308	-12,651	47,274				37,71															
03:11:28.175	COM8_115200	2000-0-0 1:23:15.840	0,747	0,622	1,785	64,514	-15,503	71,289	20,248	-13,436	48,653				37,80															
03:11:28.175	COM3_115200	2000-0-0 1:25:34.525	0,448	-0,646	1,442	-73,303	-1,343	-31,433	-21,440	-14,244	165,866				39,63															
03:11:28.188	COM3_115200	2000-0-0 1:25:34.545	0,735	-0,757	1,346	-80,383	-0,366	-38,330	-22,896	-14,529	165,223				39,54															
03:11:28.191	COM8_115200	2000-0-0 1:23:15.860	0,860	0,564	1,727	66,956	-20,874	70,007	21,292	-14,337	49,894				37,77															
03:11:28.208	COM3_115200	2000-0-0 1:25:34.565	0,726	-0,918	1,200	-75,012	2,502	-39,612	-24,335	-14,711	164,438				39,47															
03:11:28.208	COM8_115200	2000-0-0 1:23:15.880	0,818	0,524	1,632	69,946	-34,668	66,528	22,313	-15,441	50,999				37,80															
03:11:28.223	COM3_115200	2000-0-0 1:25:34.585	0,540	-0,758	1,417	-64,514	-10,620	-25,818	-25,560	-15,178	164,026				39,54															
03:11:28.240	COM8_115200	2000-0-0 1:23:15.900	0,833	0,552	1,608	69,641	-48,157	62,561	23,417	-16,848	51,905				37,74															
03:11:28.241	COM3_115200	2000-0-0 1:25:34.605	0,516	-0,696	1,442	-63,782	-25,024	-15,320	-26,812	-15,727	163,889				39,60															
03:11:28.258	COM8_115200	2000-0-0 1:23:15.920	0,798	0,507	1,530	65,735	-46,814	59,937	24,478	-18,265	52,685				37,71															
03:11:28.258	COM3_115200	2000-0-0 1:25:34.625	0,515	-0,674	1,431	-65,125	-26,550	-22,583	-28,076	-16,452	163,795				39,60															
03:11:28.274	COM8_115200	2000-0-0 1:23:15.940	0,809	0,485	1,498	66,101	-37,781	58,289	25,472	-19,578	53,459				37,80															
03:11:28.274	COM3_115200	2000-0-0 1:25:34.645	0,679	-0,635	1,309	-70,251	-17,090	-20,691	-29,377	-17,045	163,614				39,63															
03:11:28.291	COM8_115200	2000-0-0 1:23:15.960	0,892	0,449	1,522	61,218	-42,847	55,786	26,400	-20,847	54,196				37,74															
03:11:28.291	COM3_115200	2000-0-0 1:25:34.665	0,443	-0,654	1,303	-67,200	-35,645	-21,729	-30,685	-17,693	163,510				39,47															
03:11:28.308	COM8_115200	2000-0-0 1:23:15.980	0,776	0,412	1,512	56,396	-36,743	54,382	27,208	-22,066	54,910				37,71															
03:11:28.324	COM3_115200	2000-0-0 1:25:34.685	0,481	-0,522	1,436	-62,378	-55,237	-16,113	-31,954	-18,759	163,724				39,51															
03:11:28.341	COM8_115200	2000-0-0 1:23:16.000	0,890	0,393	1,489	55,359	-31,250	52,612	27,955	-23,165	55,624				37,96															
03:11:28.341	COM3_115200	2000-0-0 1:25:34.705	0,488	-0,469	1,438	-67,139	-41,504	-21,423	-33,245	-19,786	163,932				39,60															
03:11:28.358	COM8_115200	2000-0-0 1:23:16.020	0,855	0,397	1,417	48,706	-33,386	50,598	28,581	-24,274	56,294				37,87															
03:11:28.358	COM3_115200	2000-0-0 1:25:34.725	0,597	-0,445	1,332	-69,824	-18,494	-24,475	-34,470	-20,468	163,867				39,60															
03:11:28.374	COM8_115200	2000-0-0 1:23:16.040	0,773	0,362	1,474	44,556	-37,476	45,410	29,136	-25,395	56,849				37,64															
03:11:28.374	COM3_115200	2000-0-0 1:25:34.745	0,603	-0,475	1,285	-65,979	-25,574	-23,560	-35,618	-21,022	163,680				39,54															
03:11:28.391	COM8_115200	2000-0-0 1:23:16.060	0,776	0,330	1,448	40,161	-31,677	46,265	29,597	-26,439	57,415				37,74															
03:11:28.407	COM3_115200	2000-0-0 1:25:34.765	0,510	-0,465	1,268	-62,988	-31,372	-17,334	-36,760	-21,731	163,729				39,38															
03:11:28.408	COM8_115200	2000-0-0 1:23:16.080	0,901	0,242	1,401	41,260	-24,109	47,424	29,954	-27,400	58,046				37,71															
03:11:28.424	COM3_115200	2000-0-0 1:25:34.785	0,386	-0,489	1,332	-57,129	-22,644	-20,386	-37,782	-22,368	163,768				39,57															
03:11:28.424	COM8_115200	2000-0-0 1:23:16.100	0,813	0,250	1,421	35,583	-24,597	45,654	30,229	-28,257	58,766				37,80															
03:11:28.441	COM3_115200	2000-0-0 1:25:34.805	0,494	-0,402	1,305	-52,002	-2,075	-29,175	-38,540	-22,819	163,455				39,57															
03:11:28.474	COM8_115200	2000-0-0 1:23:16.120	0,725	0,172	1,479	35,889	-22,461	43,091	30,460	-29,125	59,392				37,93															
03:11:28.474	COM8_115200	2000-0-0 1:23:16.140	0,784	0,208	1,476	35,522	-17,151	44,006	30,630	-29,888	60,084				37,83															
03:11:28.474	COM3_115200	2000-0-0 1:25:34.825	0,549	-0,371	1,210	-52,063	7,629	-31,555	-39,139	-23,082	162,883				39,60															
03:11:28.474	COM3_115200	2000-0-0 1:25:34.845	0,421	-0,358	1,177	-51,208	4,883	-31,616	-39,677	-23,357	162,230				39,51															
03:11:28.509	COM8_115200	2000-0-0 1:23:16.160	0,776	0,181	1,444	37,354	-9,460	45,471	30,745	-30,509	60,914				37,74															
03:11:28.509	COM3_115200	2000-0-0 1:25:34.865	0,388	-0,352	1,227	-49,072	-4,944	-31,616	-40,215	-23,725	161,686				39,51															
03:11:28.509	COM8_115200	2000-0-0 1:23:16.180	0,771	0,118	1,426	38,574	-3,601	46,021	30,833	-31,064	61,809				37,68															
03:11:28.540	COM3_115200	2000-0-0 1:25:34.885	0,466	-0,314	1,266	-51,331	7,141	-35,339	-40,726	-24,088	161,104				39,44															
03:11:28.541	COM3_115200	2000-0-0 1:25:34.905	0,589	-0,274	1,211	-53,406	13,611	-42,419	-41,160	-24,395	160,258				39,47															
03:11:28.541	COM8_115200	2000-0-0 1:23:16.200	0,789	0,103	1,442	38,086	-0,305	47,913	30,844	-31,553	62,792				37,80															
03:11:28.558	COM8_115200	2000-0-0 1:23:16.220	0,709	0,121	1,421	41,321	12,024	49,683	30,800	-31,899	63,940				37,61															
03:11:28.574	COM3_115200	2000-0-0 1:25:34.925	0,503	-0,289	1,136	-55,786	15,503	-40,405	-41,589	-24,648	159,280				39,44															
03:11:28.574	COM8_115200	2000-0-0 1:23:16.240	0,717	0,065	1,442	47,791	19,653	50,110	30,789	-32,069	65,209				37,93															
03:11:28.574	COM3_115200	2000-0-0 1:25:34.945	0,472	-0,258	1,213	-53,528	5,615	-37,720	-42,050	-24,994	158,527				39,47															
03:11:28.591	COM8_115200	2000-0-0 1:23:16.260	0,816	0,049	1,383	46,509	14,038	54,626	30,751	-32,283	66,561				37,71															
03:11:28.591	COM3_115200	2000-0-0 1:25:34.965	0,495	-0,229	1,201	-56,152	2,625	-40,222	-42,539	-25,433	157,824				39,51															
03:11:28.608	COM8_115200	2000-0-0 1:23:16.280	0,832	0,040	1,370	50,293	22,461	57,678	30,696	-32,509	67,978				37,80															
03:11:28.624	COM3_115200	2000-0-0 1:25:34.985	0,563	-0,235	1,125	-56,396	2,441	-42,969	-43,022	-25,922	157,050				39,66															
03:11:28.641	COM8_115200	2000-0-0 1:23:16.300	0,811	0,012	1,382	50,110	28,259	57,495	30,575	-32,607	69,543				37,77															
03:11:28.641	COM3_115200	2000-0-0 1:25:35.005	0,576	-0,212	1,114	-57,495	-1,282	-45,105	-43,462	-26,428	156,264				39,76															
03:11:28.658	COM8_115200	2000-0-0 1:23:16.320	0,755	-0,005	1,390	49,805	26,001	58,655	30,443	-32,668	71,125				37,77															
03:11:28.658	COM3_115200	2000-0-0 1:25:35.025	0,540	-0,181	1,086	-54,810	-12,817	-44,861	-43,945	-27,109	155,654				39,60															
03:11:28.674	COM3_115200	2000-0-0 1:25:35.045	0,597	-0,153	1,134	-53,833	-12,817	-43,335	-44,396	-27,823	155,078				39,57															
03:11:28.674	COM8_115200	2000-0-0 1:23:16.340	0,882	-0,033	1,393	47,668	16,235	59,387	30,311	-32,904	72,620				37,80															
03:11:28.691	COM8_115200	2000-0-0 1:23:16.360	0,922	-0,057	1,343	46,509	11,719	62,317	30,114	-33,261	74,103				37,71															
03:11:28.707	COM3_115200	2000-0-0 1:25:35.065	0,609	-0,133	1,096	-51,758	-13,733	-42,542	-44,852	-28,614	154,633				39,51															
