Time	COM	Chip Time()	Acceleration X(g)	Acceleration Y(g)	Acceleration Z(g)	Angular velocity X(/s)	Angular velocity Y(/s)	Angular velocity Z(/s)	Angle X()	Angle Y()	Angle Z()	Magnetic field X(?t)	Magnetic field Y(?t)	Magnetic field Z(?t)	Temperature(?)	Pressure(Pa)	Height(m)	Longitude()	Latitude()	GPS ground speed(km)	GPS course()	GPS height(m)	Number of satellites()	Position location()	Horizontal position()	Vertical position()	Quaternions 0()	Quaternions 1()	Quaternions 2()	Quaternions 3()
01:53:54.605	COM3_115200	2000-0-0 0:7:48.885	0,571	-0,775	1,747	-8,423	-5,615	-2,869	-23,626	-11,239	167,750				36,60															
01:53:54.631	COM8_115200	2000-0-0 0:5:41.720	0,438	0,775	1,516	3,479	2,075	2,197	21,643	-23,676	-94,114				33,95															
01:53:54.631	COM8_115200	2000-0-0 0:5:41.740	0,460	0,769	1,516	2,319	3,784	2,136	21,731	-23,522	-94,048				34,17															
01:53:54.647	COM3_115200	2000-0-0 0:7:48.905	0,573	-0,783	1,728	-7,935	-5,920	-1,648	-23,796	-11,420	167,761				36,60															
01:53:54.647	COM3_115200	2000-0-0 0:7:48.925	0,572	-0,783	1,724	-6,409	-5,859	-2,319	-23,939	-11,602	167,772				36,67															
01:53:54.647	COM8_115200	2000-0-0 0:5:41.760	0,445	0,763	1,520	2,441	3,052	1,770	21,813	-23,368	-93,977				33,99															
01:53:54.663	COM3_115200	2000-0-0 0:7:48.945	0,563	-0,770	1,720	-4,578	-4,883	-2,502	-24,044	-11,772	167,767				36,67															
01:53:54.663	COM8_115200	2000-0-0 0:5:41.780	0,431	0,759	1,529	1,953	1,953	2,563	21,890	-23,236	-93,911				34,08															
01:53:54.705	COM8_115200	2000-0-0 0:5:41.800	0,442	0,766	1,523	1,648	1,221	2,625	21,962	-23,126	-93,845				34,02															
01:53:54.705	COM8_115200	2000-0-0 0:5:41.820	0,449	0,750	1,530	1,587	1,526	2,502	22,028	-23,016	-93,785				34,11															
01:53:54.705	COM3_115200	2000-0-0 0:7:48.965	0,564	-0,763	1,716	-3,174	-3,784	-1,892	-24,120	-11,926	167,767				36,64															
01:53:54.705	COM3_115200	2000-0-0 0:7:48.985	0,563	-0,782	1,715	-1,953	-1,099	-1,831	-24,164	-12,014	167,745				36,70															
01:53:54.722	COM3_115200	2000-0-0 0:7:49.005	0,562	-0,767	1,715	-0,793	-1,038	-1,404	-24,186	-12,101	167,723				36,64															
01:53:54.722	COM8_115200	2000-0-0 0:5:41.840	0,447	0,771	1,521	1,648	0,244	3,113	22,088	-22,923	-93,719				34,05															
01:53:54.739	COM3_115200	2000-0-0 0:7:49.025	0,586	-0,771	1,720	0,183	-0,732	-1,038	-24,186	-12,178	167,712				36,60															
01:53:54.739	COM8_115200	2000-0-0 0:5:41.860	0,446	0,756	1,530	1,587	-0,366	3,418	22,154	-22,852	-93,653				33,95															
01:53:54.779	COM8_115200	2000-0-0 0:5:41.880	0,444	0,761	1,527	1,831	0,000	3,235	22,214	-22,780	-93,582				34,08															
01:53:54.782	COM3_115200	2000-0-0 0:7:49.045	0,569	-0,778	1,716	0,244	0,549	-1,160	-24,175	-12,233	167,690				36,73															
01:53:54.784	COM3_115200	2000-0-0 0:7:49.065	0,553	-0,767	1,723	-0,427	0,610	-1,038	-24,170	-12,283	167,662				36,67															
01:53:54.805	COM8_115200	2000-0-0 0:5:41.900	0,448	0,743	1,521	1,831	-0,122	3,296	22,280	-22,709	-93,516				34,08															
01:53:54.806	COM3_115200	2000-0-0 0:7:49.085	0,568	-0,772	1,720	-0,732	0,122	-0,793	-24,181	-12,343	167,646				36,79															
01:53:54.810	COM8_115200	2000-0-0 0:5:41.920	0,457	0,764	1,515	2,563	0,366	2,991	22,346	-22,632	-93,450				34,17															
01:53:54.826	COM3_115200	2000-0-0 0:7:49.105	0,549	-0,779	1,719	-1,038	2,502	-0,122	-24,197	-12,371	167,629				36,67															
01:53:54.826	COM8_115200	2000-0-0 0:5:41.940	0,463	0,756	1,533	2,258	-0,732	2,563	22,423	-22,566	-93,400				34,11															
01:53:54.843	COM3_115200	2000-0-0 0:7:49.125	0,567	-0,775	1,723	-0,122	1,709	-0,244	-24,203	-12,382	167,602				36,82															
01:53:54.859	COM8_115200	2000-0-0 0:5:41.960	0,462	0,756	1,534	2,380	-1,343	2,319	22,505	-22,511	-93,351				34,02															
01:53:54.859	COM3_115200	2000-0-0 0:7:49.145	0,558	-0,772	1,731	1,343	0,610	-1,099	-24,186	-12,426	167,580				36,60															
01:53:54.859	COM8_115200	2000-0-0 0:5:41.980	0,448	0,739	1,527	2,747	-2,014	2,319	22,588	-22,473	-93,323				34,08															
01:53:54.874	COM3_115200	2000-0-0 0:7:49.165	0,547	-0,765	1,736	0,916	1,465	-2,075	-24,153	-12,469	167,542				36,64															
01:53:54.890	COM8_115200	2000-0-0 0:5:42.000	0,441	0,752	1,526	2,991	-1,892	2,258	22,681	-22,434	-93,290				34,08															
01:53:54.905	COM3_115200	2000-0-0 0:7:49.185	0,559	-0,759	1,747	0,000	-0,793	-2,563	-24,137	-12,530	167,498				36,67															
01:53:54.905	COM8_115200	2000-0-0 0:5:42.020	0,446	0,739	1,530	3,174	-1,343	2,075	22,775	-22,390	-93,263				34,08															
01:53:54.922	COM3_115200	2000-0-0 0:7:49.205	0,561	-0,758	1,750	-1,038	-1,709	-2,808	-24,137	-12,629	167,459				36,64															
01:53:54.938	COM8_115200	2000-0-0 0:5:42.040	0,466	0,744	1,536	4,761	0,610	2,136	22,885	-22,313	-93,219				34,11															
01:53:54.938	COM3_115200	2000-0-0 0:7:49.225	0,555	-0,752	1,752	-2,319	-3,357	-3,662	-24,164	-12,750	167,415				36,67															
01:53:54.955	COM8_115200	2000-0-0 0:5:42.060	0,449	0,742	1,536	6,348	1,648	2,380	23,011	-22,220	-93,153				34,08															
01:53:54.955	COM3_115200	2000-0-0 0:7:49.245	0,543	-0,752	1,762	-4,150	-5,066	-4,150	-24,225	-12,903	167,382				36,60															
01:53:54.971	COM8_115200	2000-0-0 0:5:42.080	0,445	0,732	1,542	7,996	2,380	2,747	23,170	-22,115	-93,082				33,99															
01:53:54.986	COM3_115200	2000-0-0 0:7:49.265	0,534	-0,763	1,755	-5,920	-6,165	-5,188	-24,313	-13,090	167,338				36,70															
01:53:54.986	COM8_115200	2000-0-0 0:5:42.100	0,465	0,736	1,548	10,315	3,479	2,563	23,362	-21,989	-92,999				33,95															
01:53:55.002	COM3_115200	2000-0-0 0:7:49.285	0,563	-0,743	1,757	-7,568	-7,202	-6,104	-24,428	-13,293	167,289				36,76															
01:53:55.005	COM8_115200	2000-0-0 0:5:42.120	0,456	0,750	1,549	11,658	3,235	1,831	23,588	-21,857	-92,928				34,05															
01:53:55.021	COM3_115200	2000-0-0 0:7:49.305	0,547	-0,743	1,745	-9,644	-7,813	-7,263	-24,576	-13,530	167,228				36,60															
01:53:55.021	COM8_115200	2000-0-0 0:5:42.140	0,453	0,739	1,545	13,428	3,845	1,892	23,846	-21,725	-92,851				34,11															
01:53:55.038	COM3_115200	2000-0-0 0:7:49.325	0,558	-0,735	1,750	-12,024	-6,775	-8,057	-24,763	-13,755	167,146				36,67															
01:53:55.054	COM8_115200	2000-0-0 0:5:42.160	0,462	0,739	1,543	15,137	4,822	2,319	24,126	-21,583	-92,769				34,11															
01:53:55.054	COM3_115200	2000-0-0 0:7:49.345	0,550	-0,738	1,746	-14,099	-7,141	-8,484	-24,988	-13,975	167,047				36,67															
01:53:55.070	COM8_115200	2000-0-0 0:5:42.180	0,454	0,745	1,549	17,029	4,578	2,869	24,434	-21,434	-92,670				34,17															
01:53:55.070	COM3_115200	2000-0-0 0:7:49.365	0,557	-0,724	1,745	-16,418	-7,507	-9,094	-25,252	-14,205	166,943				36,57															
01:53:55.086	COM8_115200	2000-0-0 0:5:42.200	0,448	0,719	1,547	19,531	2,380	3,357	24,785	-21,319	-92,571				34,05															
01:53:55.103	COM3_115200	2000-0-0 0:7:49.385	0,539	-0,720	1,727	-18,555	-7,263	-10,803	-25,549	-14,464	166,822				36,64															
01:53:55.117	COM8_115200	2000-0-0 0:5:42.220	0,465	0,711	1,548	21,729	2,319	3,784	25,175	-21,237	-92,472				34,11															
01:53:55.161	COM8_115200	2000-0-0 0:5:42.240	0,456	0,715	1,532	23,682	4,883	3,601	25,598	-21,116	-92,357				34,08															
01:53:55.161	COM8_115200	2000-0-0 0:5:42.260	0,457	0,711	1,513	24,353	5,371	4,700	26,027	-20,984	-92,219				34,05															
01:53:55.161	COM3_115200	2000-0-0 0:7:49.405	0,576	-0,710	1,731	-20,264	-6,775	-11,841	-25,867	-14,700	166,674				36,70															
01:53:55.161	COM3_115200	2000-0-0 0:7:49.425	0,572	-0,718	1,707	-21,301	-8,057	-12,573	-26,208	-14,974	166,514				36,60															
01:53:55.161	COM8_115200	2000-0-0 0:5:42.280	0,465	0,707	1,519	24,780	5,554	5,249	26,450	-20,863	-92,060				34,08															
01:53:55.161	COM3_115200	2000-0-0 0:7:49.445	0,581	-0,725	1,714	-21,790	-5,981	-13,367	-26,548	-15,222	166,328				36,70															
01:53:55.178	COM8_115200	2000-0-0 0:5:42.300	0,476	0,709	1,499	26,062	5,005	6,287	26,895	-20,748	-91,890				34,08															
01:53:55.193	COM3_115200	2000-0-0 0:7:49.465	0,607	-0,726	1,694	-21,057	-7,874	-15,137	-26,878	-15,491	166,124				36,67															
01:53:55.205	COM3_115200	2000-0-0 0:7:49.485	0,583	-0,736	1,685	-21,423	-9,216	-14,465	-27,202	-15,793	165,927				36,57															
01:53:55.205	COM8_115200	2000-0-0 0:5:42.320	0,456	0,704	1,500	25,513	5,005	6,531	27,323	-20,660	-91,719				34,14															
01:53:55.222	COM3_115200	2000-0-0 0:7:49.505	0,605	-0,723	1,682	-21,484	-11,108	-14,954	-27,532	-16,128	165,756				36,64															
01:53:55.222	COM8_115200	2000-0-0 0:5:42.340	0,481	0,679	1,481	27,649	5,798	7,874	27,762	-20,561	-91,516				34,11															
01:53:55.238	COM3_115200	2000-0-0 0:7:49.525	0,616	-0,707	1,664	-21,851	-10,376	-15,015	-27,861	-16,469	165,580				36,67															
01:53:55.238	COM8_115200	2000-0-0 0:5:42.360	0,476	0,702	1,463	28,015	3,296	7,935	28,218	-20,495	-91,313				34,05															
01:53:55.254	COM3_115200	2000-0-0 0:7:49.545	0,618	-0,722	1,643	-22,644	-9,399	-14,648	-28,196	-16,787	165,399				36,64															
01:53:55.270	COM8_115200	2000-0-0 0:5:42.380	0,486	0,687	1,486	28,687	2,686	8,667	28,685	-20,473	-91,126				34,05															
01:53:55.287	COM3_115200	2000-0-0 0:7:49.565	0,596	-0,709	1,656	-22,888	-9,766	-14,954	-28,542	-17,117	165,223				36,73															
01:53:55.287	COM8_115200	2000-0-0 0:5:42.400	0,466	0,667	1,460	30,396	4,028	8,423	29,158	-20,440	-90,923				34,11															
01:53:55.305	COM3_115200	2000-0-0 0:7:49.585	0,588	-0,703	1,636	-23,071	-9,033	-14,832	-28,878	-17,424	165,037				36,60															
01:53:55.305	COM8_115200	2000-0-0 0:5:42.420	0,483	0,668	1,462	31,128	2,930	8,606	29,652	-20,407	-90,725				34,02															
01:53:55.321	COM3_115200	2000-0-0 0:7:49.605	0,597	-0,675	1,627	-22,949	-7,568	-14,587	-29,213	-17,715	164,844				36,79															
01:53:55.338	COM8_115200	2000-0-0 0:5:42.440	0,469	0,661	1,465	30,762	3,418	9,277	30,141	-20,391	-90,516				34,17															
01:53:55.338	COM8_115200	2000-0-0 0:5:42.460	0,466	0,637	1,451	31,860	3,662	10,071	30,630	-20,374	-90,297				34,08															
01:53:55.353	COM3_115200	2000-0-0 0:7:49.625	0,590	-0,656	1,630	-22,278	-6,897	-16,418	-29,520	-18,001	164,636				36,67															
01:53:55.354	COM3_115200	2000-0-0 0:7:49.645	0,582	-0,638	1,631	-22,278	-7,202	-16,479	-29,817	-18,281	164,405				36,79															
01:53:55.370	COM8_115200	2000-0-0 0:5:42.480	0,472	0,623	1,468	32,715	2,319	11,475	31,119	-20,385	-90,060				34,02															
01:53:55.370	COM3_115200	2000-0-0 0:7:49.665	0,595	-0,623	1,635	-22,949	-7,080	-17,944	-30,103	-18,583	164,158				36,64															
01:53:55.386	COM8_115200	2000-0-0 0:5:42.500	0,485	0,604	1,450	34,546	4,211	12,512	31,619	-20,407	-89,802				34,11															
01:53:55.406	COM3_115200	2000-0-0 0:7:49.685	0,584	-0,601	1,634	-24,841	-4,883	-19,836	-30,394	-18,875	163,878				36,57															
01:53:55.406	COM8_115200	2000-0-0 0:5:42.520	0,486	0,606	1,434	36,926	6,226	13,000	32,141	-20,391	-89,495				34,05															
01:53:55.422	COM3_115200	2000-0-0 0:7:49.705	0,588	-0,585	1,636	-27,954	-5,676	-20,447	-30,723	-19,149	163,548				36,60															
01:53:55.422	COM8_115200	2000-0-0 0:5:42.540	0,484	0,601	1,450	37,964	5,432	14,587	32,668	-20,407	-89,176				34,08															
01:53:55.438	COM3_115200	2000-0-0 0:7:49.725	0,602	-0,584	1,629	-30,945	-7,324	-21,729	-31,102	-19,484	163,240				36,57															
01:53:55.438	COM8_115200	2000-0-0 0:5:42.560	0,479	0,609	1,426	39,001	7,385	16,052	33,206	-20,418	-88,808				34,08															
01:53:55.455	COM3_115200	2000-0-0 0:7:49.745	0,614	-0,587	1,608	-34,668	-6,287	-22,583	-31,531	-19,814	162,894				36,60															
01:53:55.471	COM3_115200	2000-0-0 0:7:49.765	0,608	-0,599	1,609	-37,170	-9,644	-23,193	-32,014	-20,182	162,565				36,60															
01:53:55.471	COM8_115200	2000-0-0 0:5:42.580	0,509	0,582	1,435	41,870	8,362	17,029	33,761	-20,424	-88,407				34,14															
01:53:55.506	COM3_115200	2000-0-0 0:7:49.785	0,623	-0,590	1,608	-39,063	-10,864	-24,170	-32,536	-20,588	162,241				36,70															
01:53:55.523	COM8_115200	2000-0-0 0:5:42.600	0,499	0,574	1,419	42,725	7,507	18,311	34,327	-20,457	-87,995				34,11															
01:53:55.523	COM8_115200	2000-0-0 0:5:42.620	0,501	0,566	1,399	45,044	9,766	18,494	34,920	-20,484	-87,567				34,14															
01:53:55.539	COM3_115200	2000-0-0 0:7:49.805	0,638	-0,580	1,572	-42,297	-9,399	-24,963	-33,085	-21,006	161,895				36,73															
01:53:55.539	COM3_115200	2000-0-0 0:7:49.825	0,638	-0,577	1,569	-45,044	-15,198	-25,574	-33,706	-21,484	161,587				36,64															
01:53:55.539	COM8_115200	2000-0-0 0:5:42.640	0,531	0,551	1,405	46,692	9,216	18,677	35,541	-20,500	-87,122				34,14															
01:53:55.554	COM8_115200	2000-0-0 0:5:42.660	0,552	0,556	1,398	47,119	7,629	20,752	36,156	-20,566	-86,666				33,95															
01:53:55.554	COM3_115200	2000-0-0 0:7:49.845	0,621	-0,594	1,537	-46,631	-17,822	-24,780	-34,371	-22,011	161,323				36,64															
01:53:55.570	COM8_115200	2000-0-0 0:5:42.680	0,544	0,553	1,378	48,706	6,775	20,935	36,799	-20,665	-86,210				34,08															
01:53:55.570	COM3_115200	2000-0-0 0:7:49.865	0,639	-0,567	1,524	-47,302	-16,968	-25,269	-35,052	-22,577	161,087				36,76															
01:53:55.603	COM8_115200	2000-0-0 0:5:42.700	0,548	0,532	1,378	49,805	3,662	21,301	37,458	-20,814	-85,776				34,11															
01:53:55.604	COM3_115200	2000-0-0 0:7:49.885	0,644	-0,546	1,491	-46,936	-16,052	-26,978	-35,717	-23,121	160,818				36,73															
01:53:55.622	COM8_115200	2000-0-0 0:5:42.720	0,545	0,504	1,369	50,049	-0,244	22,278	38,123	-21,039	-85,386				34,08															
01:53:55.622	COM3_115200	2000-0-0 0:7:49.905	0,652	-0,522	1,496	-47,791	-13,245	-27,710	-36,354	-23,626	160,488				36,70															
01:53:55.622	COM8_115200	2000-0-0 0:5:42.740	0,564	0,480	1,374	50,598	-0,427	23,987	38,782	-21,308	-84,990				34,21															
01:53:55.640	COM3_115200	2000-0-0 0:7:49.925	0,645	-0,521	1,480	-47,852	-17,029	-26,917	-37,002	-24,153	160,181				36,76															
01:53:55.663	COM3_115200	2000-0-0 0:7:49.945	0,663	-0,489	1,471	-48,523	-14,771	-27,527	-37,645	-24,714	159,901				36,67															
01:53:55.663	COM8_115200	2000-0-0 0:5:42.760	0,551	0,467	1,340	50,781	-1,831	25,513	39,435	-21,616	-84,584				33,99															
01:53:55.663	COM8_115200	2000-0-0 0:5:42.780	0,565	0,448	1,325	51,880	-2,014	26,245	40,084	-21,945	-84,166				34,14															
01:53:55.696	COM3_115200	2000-0-0 0:7:49.965	0,656	-0,484	1,443	-49,255	-14,221	-27,893	-38,276	-25,230	159,576				36,67															
01:53:55.696	COM8_115200	2000-0-0 0:5:42.800	0,576	0,420	1,325	50,476	-2,380	27,222	40,704	-22,319	-83,743				34,11															
01:53:55.696	COM3_115200	2000-0-0 0:7:49.985	0,653	-0,459	1,429	-48,828	-17,578	-27,649	-38,925	-25,790	159,307				36,82															
01:53:55.706	COM8_115200	2000-0-0 0:5:42.820	0,555	0,408	1,292	50,842	-0,549	27,161	41,298	-22,665	-83,304				34,02															
01:53:55.722	COM3_115200	2000-0-0 0:7:50.005	0,642	-0,444	1,416	-48,584	-16,113	-28,076	-39,540	-26,367	159,027				36,64															
01:53:55.722	COM8_115200	2000-0-0 0:5:42.840	0,590	0,369	1,288	50,354	-0,610	27,710	41,874	-23,022	-82,853				34,11															
01:53:55.739	COM3_115200	2000-0-0 0:7:50.025	0,680	-0,438	1,380	-48,523	-16,846	-26,489	-40,150	-26,911	158,752				36,70															
01:53:55.754	COM8_115200	2000-0-0 0:5:42.860	0,585	0,346	1,292	49,500	1,343	28,992	42,402	-23,384	-82,370				34,08															
01:53:55.755	COM3_115200	2000-0-0 0:7:50.045	0,668	-0,428	1,352	-46,509	-20,569	-26,184	-40,759	-27,510	158,555				36,70															
01:53:55.772	COM8_115200	2000-0-0 0:5:42.880	0,594	0,341	1,276	48,950	2,197	29,358	42,885	-23,719	-81,848				34,05															
01:53:55.772	COM3_115200	2000-0-0 0:7:50.065	0,637	-0,427	1,336	-43,579	-21,545	-26,123	-41,314	-28,120	158,384				36,60															
01:53:55.788	COM8_115200	2000-0-0 0:5:42.900	0,587	0,304	1,254	48,645	-1,160	27,283	43,374	-24,093	-81,387				34,11															
01:53:55.811	COM3_115200	2000-0-0 0:7:50.085	0,661	-0,398	1,332	-41,199	-20,203	-27,527	-41,797	-28,740	158,187				36,70															
01:53:55.815	COM8_115200	2000-0-0 0:5:42.920	0,600	0,264	1,277	49,194	-1,892	28,564	43,852	-24,500	-80,953				34,05															
01:53:55.823	COM3_115200	2000-0-0 0:7:50.105	0,616	-0,345	1,311	-39,429	-14,771	-28,015	-42,193	-29,312	157,923				36,73															
01:53:55.832	COM8_115200	2000-0-0 0:5:42.940	0,594	0,258	1,290	48,340	-3,906	29,297	44,308	-24,928	-80,519				34,08															
01:53:55.843	COM3_115200	2000-0-0 0:7:50.125	0,635	-0,308	1,330	-37,842	-8,362	-29,907	-42,495	-29,817	157,544				36,60															
01:53:55.843	COM8_115200	2000-0-0 0:5:42.960	0,575	0,250	1,266	48,889	-2,747	30,090	44,758	-25,367	-80,079				33,99															
01:53:55.891	COM8_115200	2000-0-0 0:5:42.980	0,575	0,226	1,231	48,706	0,610	28,259	45,176	-25,774	-79,612				34,08															
01:53:55.891	COM8_115200	2000-0-0 0:5:43.000	0,589	0,212	1,219	47,974	1,892	28,503	45,555	-26,131	-79,113				33,89															
01:53:55.891	COM3_115200	2000-0-0 0:7:50.145	0,663	-0,297	1,330	-36,621	-1,831	-30,823	-42,682	-30,234	157,028				36,60															
01:53:55.891	COM3_115200	2000-0-0 0:7:50.165	0,630	-0,291	1,347	-36,865	5,066	-31,433	-42,786	-30,547	156,385				36,60															
01:53:55.906	COM3_115200	2000-0-0 0:7:50.185	0,667	-0,268	1,344	-37,781	-0,610	-30,884	-42,902	-30,872	155,753				36,64															
01:53:55.906	COM8_115200	2000-0-0 0:5:43.020	0,577	0,188	1,194	47,729	1,831	28,015	45,917	-26,483	-78,624				34,08															
01:53:55.906	COM3_115200	2000-0-0 0:7:50.205	0,673	-0,244	1,319	-39,673	-0,244	-30,518	-43,066	-31,262	155,198				36,73															
01:53:55.922	COM8_115200	2000-0-0 0:5:43.040	0,618	0,184	1,234	48,462	5,432	28,076	46,241	-26,812	-78,091				33,92															
01:53:55.938	COM3_115200	2000-0-0 0:7:50.225	0,644	-0,263	1,331	-41,199	-0,977	-29,724	-43,248	-31,591	154,611				36,67															
01:53:55.938	COM8_115200	2000-0-0 0:5:43.060	0,612	0,159	1,221	48,584	8,240	24,902	46,544	-27,070	-77,525				34,17															
01:53:55.955	COM3_115200	2000-0-0 0:7:50.245	0,664	-0,237	1,327	-41,260	-3,540	-30,396	-43,456	-31,981	154,083				36,73															
01:53:55.983	COM8_115200	2000-0-0 0:5:43.080	0,611	0,151	1,190	51,147	7,507	25,452	46,890	-27,307	-76,976				34,11															
01:53:55.983	COM8_115200	2000-0-0 0:5:43.100	0,634	0,131	1,213	49,622	5,676	24,597	47,230	-27,581	-76,465				34,14															
01:53:55.983	COM3_115200	2000-0-0 0:7:50.265	0,677	-0,216	1,322	-42,969	-2,258	-31,738	-43,649	-32,377	153,517				36,67															
01:53:55.999	COM3_115200	2000-0-0 0:7:50.285	0,698	-0,202	1,311	-44,312	-10,437	-31,982	-43,901	-32,849	153,012				36,57															
01:53:56.023	COM3_115200	2000-0-0 0:7:50.305	0,658	-0,207	1,293	-44,067	-17,456	-32,715	-44,203	-33,415	152,611				36,70															
01:53:56.039	COM3_115200	2000-0-0 0:7:50.325	0,676	-0,184	1,312	-43,762	-20,813	-31,555	-44,555	-34,102	152,336				36,67															
01:53:56.039	COM8_115200	2000-0-0 0:5:43.120	0,640	0,131	1,210	51,636	11,230	25,574	47,538	-27,806	-75,888				34,02															
01:53:56.039	COM8_115200	2000-0-0 0:5:43.140	0,648	0,104	1,183	49,866	10,986	24,780	47,802	-28,021	-75,262				34,11															
01:53:56.055	COM8_115200	2000-0-0 0:5:43.160	0,627	0,074	1,202	48,279	10,071	26,855	48,043	-28,246	-74,674				34,21															
01:53:56.055	COM3_115200	2000-0-0 0:7:50.345	0,683	-0,175	1,286	-44,922	-20,630	-33,447	-44,885	-34,777	152,018				36,73															
01:53:56.071	COM8_115200	2000-0-0 0:5:43.180	0,673	0,086	1,196	46,692	4,944	28,076	48,257	-28,537	-74,103				34,02															
01:53:56.071	COM3_115200	2000-0-0 0:7:50.365	0,652	-0,130	1,249	-45,044	-24,231	-32,898	-45,247	-35,480	151,760				36,76															
01:53:56.088	COM8_115200	2000-0-0 0:5:43.200	0,658	0,066	1,210	44,739	3,906	25,757	48,450	-28,872	-73,608				34,14															
01:53:56.107	COM3_115200	2000-0-0 0:7:50.385	0,681	-0,130	1,285	-44,006	-35,583	-33,752	-45,670	-36,315	151,639				36,73															
01:53:56.107	COM8_115200	2000-0-0 0:5:43.220	0,650	0,019	1,228	44,495	6,042	27,466	48,587	-29,196	-73,076				34,11															
01:53:56.107	COM3_115200	2000-0-0 0:7:50.405	0,658	-0,107	1,255	-44,495	-31,128	-33,020	-46,093	-37,145	151,540				36,67															
01:53:56.123	COM8_115200	2000-0-0 0:5:43.240	0,689	0,030	1,217	42,236	3,662	27,771	48,691	-29,542	-72,543				34,05															
01:53:56.140	COM3_115200	2000-0-0 0:7:50.425	0,697	-0,083	1,234	-44,312	-27,527	-31,311	-46,467	-37,919	151,370				36,67															
01:53:56.140	COM8_115200	2000-0-0 0:5:43.260	0,682	0,010	1,213	40,405	4,761	27,039	48,741	-29,888	-72,010				34,08															
01:53:56.155	COM3_115200	2000-0-0 0:7:50.445	0,666	-0,102	1,203	-42,358	-35,522	-33,447	-46,829	-38,721	151,232				36,67															
01:53:56.171	COM8_115200	2000-0-0 0:5:43.280	0,646	-0,006	1,232	38,269	5,188	27,344	48,724	-30,229	-71,455				34,14															
01:53:56.187	COM3_115200	2000-0-0 0:7:50.465	0,617	-0,079	1,204	-41,138	-36,804	-31,128	-47,230	-39,584	151,221				36,60															
01:53:56.187	COM3_115200	2000-0-0 0:7:50.485	0,638	-0,042	1,222	-41,016	-26,794	-31,006	-47,527	-40,342	151,089				36,76															
01:53:56.203	COM8_115200	2000-0-0 0:5:43.300	0,629	-0,040	1,241	37,659	4,761	27,344	48,675	-30,558	-70,911				34,14															
01:53:56.207	COM8_115200	2000-0-0 0:5:43.320	0,655	-0,059	1,267	37,109	0,671	28,137	48,620	-30,921	-70,395				33,99															
01:53:56.207	COM3_115200	2000-0-0 0:7:50.505	0,650	-0,004	1,223	-38,757	-26,855	-31,616	-47,719	-41,028	150,853				36,70															
01:53:56.239	COM8_115200	2000-0-0 0:5:43.340	0,634	-0,071	1,248	36,682	-0,732	28,137	48,571	-31,333	-69,917				34,05															
01:53:56.239	COM8_115200	2000-0-0 0:5:43.360	0,602	-0,087	1,266	35,583	2,258	28,320	48,472	-31,718	-69,401				34,05															
01:53:56.255	COM3_115200	2000-0-0 0:7:50.525	0,556	-0,018	1,222	-38,513	-21,118	-32,349	-47,851	-41,726	150,562				36,73															
01:53:56.256	COM3_115200	2000-0-0 0:7:50.545	0,606	0,026	1,194	-39,429	-18,738	-31,494	-47,933	-42,352	150,211				36,60															
01:53:56.271	COM8_115200	2000-0-0 0:5:43.380	0,642	-0,115	1,283	36,255	2,625	29,053	48,334	-32,075	-68,829				34,02															
01:53:56.271	COM3_115200	2000-0-0 0:7:50.565	0,604	0,052	1,226	-39,734	-18,494	-29,053	-48,010	-42,880	149,832				36,64															
01:53:56.287	COM8_115200	2000-0-0 0:5:43.400	0,643	-0,127	1,268	36,865	-0,427	28,687	48,224	-32,443	-68,302				34,14															
01:53:56.287	COM3_115200	2000-0-0 0:7:50.585	0,553	0,047	1,188	-40,100	-11,414	-29,724	-48,005	-43,374	149,354				36,76															
01:53:56.307	COM8_115200	2000-0-0 0:5:43.420	0,625	-0,142	1,263	36,987	1,038	29,114	48,093	-32,838	-67,747				33,95															
01:53:56.324	COM3_115200	2000-0-0 0:7:50.605	0,603	0,077	1,189	-39,490	-11,230	-30,029	-47,939	-43,841	148,804				36,64															
01:53:56.324	COM8_115200	2000-0-0 0:5:43.440	0,642	-0,154	1,262	36,926	3,479	29,297	47,944	-33,195	-67,159				34,11															
01:53:56.340	COM3_115200	2000-0-0 0:7:50.625	0,602	0,102	1,209	-38,940	-10,620	-30,273	-47,813	-44,242	148,206				36,67															
01:53:56.340	COM8_115200	2000-0-0 0:5:43.460	0,636	-0,183	1,250	36,621	4,883	28,992	47,752	-33,503	-66,550				33,99															
01:53:56.356	COM3_115200	2000-0-0 0:7:50.645	0,594	0,105	1,192	-37,964	-6,775	-28,198	-47,631	-44,626	147,563				36,60															
01:53:56.371	COM8_115200	2000-0-0 0:5:43.480	0,653	-0,188	1,235	36,011	4,944	29,846	47,527	-33,821	-65,885				34,11															
01:53:56.371	COM3_115200	2000-0-0 0:7:50.665	0,612	0,130	1,180	-36,621	-10,498	-29,236	-47,461	-45,011	146,975				36,64															
01:53:56.387	COM8_115200	2000-0-0 0:5:43.500	0,644	-0,212	1,254	34,973	4,395	29,846	47,280	-34,140	-65,242				34,14															
01:53:56.387	COM3_115200	2000-0-0 0:7:50.685	0,539	0,137	1,165	-35,706	-10,071	-29,358	-47,258	-45,423	146,387				36,67															
01:53:56.407	COM8_115200	2000-0-0 0:5:43.520	0,638	-0,230	1,266	34,912	4,211	29,480	47,021	-34,453	-64,600				34,08															
01:53:56.407	COM3_115200	2000-0-0 0:7:50.705	0,572	0,151	1,173	-33,386	-12,146	-25,513	-47,043	-45,797	145,844				36,67															
01:53:56.423	COM8_115200	2000-0-0 0:5:43.540	0,641	-0,251	1,264	34,607	1,892	28,625	46,747	-34,766	-63,968				34,14															
01:53:56.440	COM3_115200	2000-0-0 0:7:50.725	0,572	0,179	1,168	-32,898	-11,108	-25,391	-46,824	-46,219	145,327				36,67															
01:53:56.440	COM8_115200	2000-0-0 0:5:43.560	0,653	-0,270	1,274	34,607	2,563	30,273	46,461	-35,096	-63,331				33,99															
01:53:56.456	COM3_115200	2000-0-0 0:7:50.745	0,577	0,200	1,167	-33,508	-9,949	-30,701	-46,516	-46,604	144,706				36,76															
01:53:56.471	COM8_115200	2000-0-0 0:5:43.580	0,655	-0,265	1,264	33,691	2,441	28,809	46,159	-35,403	-62,693				34,08															
01:53:56.471	COM3_115200	2000-0-0 0:7:50.765	0,561	0,209	1,173	-32,593	-11,292	-26,489	-46,176	-46,945	144,058				36,57															
01:53:56.487	COM8_115200	2000-0-0 0:5:43.600	0,642	-0,298	1,266	32,837	3,784	28,625	45,824	-35,700	-62,045				34,14															
01:53:56.487	COM3_115200	2000-0-0 0:7:50.785	0,543	0,206	1,162	-31,433	-13,062	-26,733	-45,851	-47,368	143,470				36,60															
01:53:56.507	COM3_115200	2000-0-0 0:7:50.805	0,516	0,246	1,193	-31,372	-13,123	-26,062	-45,527	-47,697	142,910				36,79															
01:53:56.507	COM8_115200	2000-0-0 0:5:43.620	0,609	-0,303	1,261	31,616	5,554	27,100	45,445	-35,947	-61,370				34,14															
01:53:56.540	COM3_115200	2000-0-0 0:7:50.825	0,564	0,259	1,231	-31,982	-14,709	-29,236	-45,165	-48,126	142,289				36,67															
01:53:56.540	COM8_115200	2000-0-0 0:5:43.640	0,628	-0,323	1,275	29,419	2,136	27,161	45,044	-36,194	-60,721				34,05															
01:53:56.540	COM8_115200	2000-0-0 0:5:43.660	0,656	-0,332	1,299	28,564	3,174	27,344	44,615	-36,458	-60,090				34,02															
01:53:56.556	COM3_115200	2000-0-0 0:7:50.845	0,491	0,279	1,185	-33,508	-9,888	-25,513	-44,791	-48,477	141,636				36,64															
01:53:56.572	COM3_115200	2000-0-0 0:7:50.865	0,532	0,286	1,169	-33,569	-12,390	-23,682	-44,434	-48,741	140,999				36,64															
01:53:56.572	COM8_115200	2000-0-0 0:5:43.680	0,656	-0,329	1,290	27,588	7,874	26,428	44,121	-36,650	-59,381				34,11															
01:53:56.607	COM8_115200	2000-0-0 0:5:43.700	0,638	-0,338	1,269	26,978	11,658	23,193	43,566	-36,733	-58,623				34,17															
01:53:56.607	COM8_115200	2000-0-0 0:5:43.720	0,630	-0,357	1,289	24,292	11,108	24,536	42,995	-36,804	-57,881				34,21															
01:53:56.624	COM3_115200	2000-0-0 0:7:50.885	0,580	0,278	1,205	-33,264	-17,029	-25,940	-44,138	-49,092	140,444				36,51															
01:53:56.624	COM3_115200	2000-0-0 0:7:50.905	0,511	0,304	1,165	-33,142	-12,268	-22,156	-43,802	-49,395	139,867				36,64															
01:53:56.640	COM3_115200	2000-0-0 0:7:50.925	0,580	0,307	1,171	-31,616	-20,386	-20,569	-43,544	-49,741	139,411				36,70															
01:53:56.674	COM8_115200	2000-0-0 0:5:43.740	0,647	-0,372	1,304	22,461	8,423	25,635	42,385	-36,898	-57,156				34,08															
01:53:56.674	COM8_115200	2000-0-0 0:5:43.760	0,635	-0,383	1,307	22,644	6,226	24,597	41,792	-37,024	-56,470				34,14															
01:53:56.674	COM3_115200	2000-0-0 0:7:50.945	0,550	0,313	1,166	-30,396	-17,700	-22,644	-43,264	-50,092	138,961				36,60															
01:53:56.674	COM3_115200	2000-0-0 0:7:50.965	0,556	0,329	1,142	-29,175	-12,085	-22,156	-42,874	-50,389	138,406				36,64															
01:53:56.690	COM8_115200	2000-0-0 0:5:43.780	0,611	-0,395	1,317	21,240	5,493	23,804	41,204	-37,161	-55,816				34,11															
01:53:56.690	COM8_115200	2000-0-0 0:5:43.800	0,603	-0,403	1,336	20,020	4,395	23,376	40,605	-37,277	-55,190				34,17															
01:53:56.708	COM3_115200	2000-0-0 0:7:50.985	0,505	0,333	1,167	-27,527	-12,695	-22,095	-42,429	-50,663	137,818				36,76															
01:53:56.708	COM8_115200	2000-0-0 0:5:43.820	0,593	-0,415	1,324	19,165	1,526	23,621	40,001	-37,414	-54,586				34,08															
01:53:56.724	COM3_115200	2000-0-0 0:7:51.005	0,538	0,333	1,183	-25,208	-9,583	-22,278	-41,869	-50,900	137,142				36,60															
01:53:56.724	COM8_115200	2000-0-0 0:5:43.840	0,584	-0,424	1,338	18,555	-0,732	22,583	39,413	-37,579	-54,036				34,24															
01:53:56.741	COM3_115200	2000-0-0 0:7:51.025	0,456	0,366	1,192	-22,705	-2,625	-20,386	-41,193	-51,031	136,384				36,73															
01:53:56.741	COM8_115200	2000-0-0 0:5:43.860	0,594	-0,423	1,356	16,174	-1,953	23,438	38,793	-37,766	-53,487				34,11															
01:53:56.757	COM3_115200	2000-0-0 0:7:51.045	0,418	0,398	1,202	-22,278	-3,967	-20,630	-40,446	-51,081	135,560				36,70															
01:53:56.772	COM8_115200	2000-0-0 0:5:43.880	0,563	-0,441	1,360	16,479	0,854	25,269	38,128	-37,936	-52,894				34,21															
01:53:56.772	COM3_115200	2000-0-0 0:7:51.065	0,468	0,400	1,235	-21,301	-9,766	-21,790	-39,732	-51,213	134,797				36,70															
01:53:56.788	COM8_115200	2000-0-0 0:5:43.900	0,542	-0,443	1,362	16,663	2,014	25,940	37,441	-38,084	-52,234				34,14															
01:53:56.788	COM3_115200	2000-0-0 0:7:51.085	0,454	0,405	1,229	-22,095	-6,714	-23,499	-39,001	-51,361	134,022				36,57															
01:53:56.808	COM3_115200	2000-0-0 0:7:51.105	0,542	0,423	1,240	-22,644	-12,451	-25,085	-38,276	-51,553	133,231				36,54															
01:53:56.808	COM8_115200	2000-0-0 0:5:43.920	0,561	-0,459	1,330	13,855	3,418	27,161	36,700	-38,216	-51,542				34,11															
01:53:56.840	COM3_115200	2000-0-0 0:7:51.125	0,457	0,410	1,218	-22,827	-2,441	-21,606	-37,546	-51,658	132,435				36,60															
01:53:56.841	COM8_115200	2000-0-0 0:5:43.940	0,596	-0,489	1,351	11,292	1,526	28,076	35,903	-38,364	-50,839				34,11															
01:53:56.854	COM8_115200	2000-0-0 0:5:43.960	0,610	-0,476	1,343	11,230	5,432	29,602	35,035	-38,474	-50,065				34,21															
01:53:56.864	COM3_115200	2000-0-0 0:7:51.145	0,420	0,430	1,185	-22,888	6,226	-19,592	-36,689	-51,548	131,457				36,70															
01:53:56.872	COM8_115200	2000-0-0 0:5:43.980	0,614	-0,475	1,341	12,024	7,263	28,809	34,167	-38,518	-49,252				34,24															
01:53:56.875	COM3_115200	2000-0-0 0:7:51.165	0,520	0,421	1,182	-22,278	-1,282	-18,188	-35,892	-51,449	130,567				36,73															
01:53:56.893	COM8_115200	2000-0-0 0:5:44.000	0,625	-0,482	1,354	11,536	3,052	24,170	33,338	-38,562	-48,510				33,95															
01:53:56.893	COM3_115200	2000-0-0 0:7:51.185	0,465	0,434	1,183	-21,851	-1,587	-15,503	-35,189	-51,400	129,803				36,70															
01:53:56.908	COM8_115200	2000-0-0 0:5:44.020	0,679	-0,492	1,353	12,451	-4,150	23,254	32,618	-38,677	-47,928				34,05															
01:53:56.908	COM3_115200	2000-0-0 0:7:51.205	0,529	0,440	1,179	-22,400	-1,953	-15,686	-34,475	-51,317	129,023				36,60															
01:53:56.924	COM8_115200	2000-0-0 0:5:44.040	0,674	-0,483	1,362	14,343	-1,770	18,921	31,998	-38,787	-47,428				34,21															
01:53:56.940	COM3_115200	2000-0-0 0:7:51.225	0,569	0,423	1,178	-21,118	-3,174	-13,855	-33,816	-51,240	128,331				36,57															
01:53:56.956	COM3_115200	2000-0-0 0:7:51.245	0,385	0,384	1,194	-22,766	8,118	-6,897	-33,256	-51,015	127,744				36,70															
01:53:56.972	COM8_115200	2000-0-0 0:5:44.060	0,583	-0,363	1,393	17,334	5,432	12,390	31,437	-38,727	-46,961				34,11															
01:53:56.972	COM8_115200	2000-0-0 0:5:44.080	0,632	-0,574	1,288	18,066	1,953	3,235	31,036	-38,562	-46,664				34,17															
01:53:56.988	COM3_115200	2000-0-0 0:7:51.265	0,503	0,500	1,156	-20,874	10,010	-3,052	-32,613	-50,559	127,068				36,64															
01:53:57.008	COM8_115200	2000-0-0 0:5:44.100	0,659	-0,557	1,333	17,822	-3,174	5,981	30,718	-38,502	-46,500				34,11															
01:53:57.008	COM3_115200	2000-0-0 0:7:51.285	0,490	0,461	1,210	-17,883	-2,075	-2,686	-32,108	-50,295	126,634				36,79															
01:53:57.008	COM8_115200	2000-0-0 0:5:44.120	0,585	-0,538	1,324	14,832	2,869	1,709	30,350	-38,353	-46,335				34,14															
01:53:57.008	COM3_115200	2000-0-0 0:7:51.305	0,458	0,486	1,222	-16,052	-1,038	-3,845	-31,630	-50,043	126,288				36,64															
01:53:57.025	COM8_115200	2000-0-0 0:5:44.140	0,583	-0,537	1,337	11,414	-2,625	-0,183	29,960	-38,188	-46,230				34,05															
01:53:57.040	COM3_115200	2000-0-0 0:7:51.325	0,496	0,487	1,246	-10,437	-8,484	-2,686	-31,102	-49,867	125,997				36,60															
01:53:57.040	COM8_115200	2000-0-0 0:5:44.160	0,577	-0,547	1,370	8,362	-6,165	-1,465	29,564	-38,106	-46,230				34,02															
01:53:57.056	COM3_115200	2000-0-0 0:7:51.345	0,421	0,478	1,256	-6,958	-4,883	-1,831	-30,553	-49,730	125,788				36,67															
01:53:57.072	COM8_115200	2000-0-0 0:5:44.180	0,540	-0,550	1,403	7,629	0,183	-2,747	29,130	-37,958	-46,219				34,14															
01:53:57.072	COM3_115200	2000-0-0 0:7:51.365	0,434	0,501	1,270	-6,165	2,502	-2,563	-29,866	-49,449	125,436				36,67															
01:53:57.087	COM8_115200	2000-0-0 0:5:44.200	0,570	-0,543	1,407	6,958	0,977	-2,869	28,663	-37,738	-46,165				34,08															
01:53:57.087	COM3_115200	2000-0-0 0:7:51.385	0,464	0,501	1,245	-4,639	2,258	-2,136	-29,136	-49,136	125,057				36,60															
01:53:57.108	COM8_115200	2000-0-0 0:5:44.220	0,542	-0,541	1,404	7,202	4,150	-2,380	28,185	-37,502	-46,099				34,17															
01:53:57.108	COM3_115200	2000-0-0 0:7:51.405	0,459	0,519	1,241	-2,991	4,150	-0,916	-28,389	-48,790	124,689				36,67															
01:53:57.129	COM8_115200	2000-0-0 0:5:44.240	0,571	-0,537	1,371	6,409	4,333	-3,174	27,702	-37,222	-46,011				34,08															
01:53:57.129	COM3_115200	2000-0-0 0:7:51.425	0,470	0,497	1,242	-1,404	6,775	-2,197	-27,581	-48,406	124,277				36,70															
01:53:57.145	COM8_115200	2000-0-0 0:5:44.260	0,577	-0,540	1,368	4,028	-1,709	-3,479	27,224	-37,007	-45,994				34,17															
01:53:57.145	COM3_115200	2000-0-0 0:7:51.445	0,441	0,490	1,241	-1,587	4,883	-1,343	-26,796	-48,016	123,893				36,64															
01:53:57.161	COM8_115200	2000-0-0 0:5:44.280	0,593	-0,519	1,363	3,418	-3,418	-3,784	26,752	-36,848	-46,016				34,08															
01:53:57.177	COM3_115200	2000-0-0 0:7:51.465	0,463	0,522	1,249	-2,991	3,479	0,000	-26,109	-47,653	123,607				36,70															
01:53:57.193	COM8_115200	2000-0-0 0:5:44.300	0,572	-0,541	1,363	3,479	-1,465	-4,395	26,290	-36,689	-46,060				34,17															
01:53:57.208	COM3_115200	2000-0-0 0:7:51.485	0,439	0,521	1,242	-3,296	1,221	0,366	-25,466	-47,318	123,365				36,67															
01:53:57.208	COM3_115200	2000-0-0 0:7:51.505	0,472	0,506	1,274	-4,211	0,122	1,709	-24,862	-46,983	123,151				36,70															
01:53:57.225	COM8_115200	2000-0-0 0:5:44.320	0,595	-0,522	1,355	2,441	-1,160	-4,700	25,818	-36,497	-46,088				34,08															
01:53:57.225	COM8_115200	2000-0-0 0:5:44.340	0,579	-0,509	1,373	2,014	-2,686	-6,409	25,356	-36,326	-46,165				34,08															
01:53:57.241	COM3_115200	2000-0-0 0:7:51.525	0,452	0,497	1,242	-3,845	-0,610	3,784	-24,335	-46,681	123,030				36,73															
01:53:57.258	COM8_115200	2000-0-0 0:5:44.360	0,574	-0,528	1,366	2,258	-0,366	-7,446	24,917	-36,107	-46,263				34,08															
01:53:57.258	COM8_115200	2000-0-0 0:5:44.380	0,570	-0,515	1,393	2,075	-1,282	-6,470	24,489	-35,909	-46,357				34,14															
01:53:57.274	COM3_115200	2000-0-0 0:7:51.545	0,473	0,517	1,264	-4,517	1,038	4,211	-23,840	-46,346	122,937				36,64															
01:53:57.274	COM3_115200	2000-0-0 0:7:51.565	0,439	0,522	1,258	-4,272	-0,549	6,470	-23,379	-46,000	122,893				36,64															
01:53:57.289	COM8_115200	2000-0-0 0:5:44.400	0,581	-0,516	1,383	2,136	-0,854	-7,751	24,066	-35,695	-46,467				34,11															
01:53:57.289	COM3_115200	2000-0-0 0:7:51.585	0,454	0,487	1,268	-4,517	-1,892	5,188	-22,923	-45,681	122,833				36,60															
01:53:57.308	COM8_115200	2000-0-0 0:5:44.420	0,599	-0,516	1,366	2,502	-0,732	-7,935	23,654	-35,486	-46,588				34,21															
01:53:57.308	COM3_115200	2000-0-0 0:7:51.605	0,473	0,483	1,265	-4,456	-0,916	7,507	-22,511	-45,379	122,833				36,60															
01:53:57.341	COM8_115200	2000-0-0 0:5:44.440	0,585	-0,519	1,379	2,441	-0,427	-8,972	23,258	-35,266	-46,719				34,14															
01:53:57.341	COM8_115200	2000-0-0 0:5:44.460	0,599	-0,517	1,395	2,869	-0,488	-9,521	22,885	-35,046	-46,868				34,02															
01:53:57.357	COM3_115200	2000-0-0 0:7:51.625	0,451	0,486	1,244	-5,615	2,136	12,085	-22,176	-44,984	122,915				36,67															
01:53:57.357	COM3_115200	2000-0-0 0:7:51.645	0,431	0,524	1,226	-7,141	4,456	15,991	-21,945	-44,517	123,102				36,60															
01:53:57.374	COM8_115200	2000-0-0 0:5:44.480	0,674	-0,515	1,389	4,761	-2,075	-11,230	22,577	-34,827	-47,076				34,02															
01:53:57.374	COM3_115200	2000-0-0 0:7:51.665	0,521	0,500	1,239	-5,920	0,916	15,442	-21,731	-44,066	123,322				36,67															
01:53:57.390	COM8_115200	2000-0-0 0:5:44.500	0,627	-0,533	1,364	4,333	-1,099	-12,390	22,302	-34,612	-47,318				34,08															
01:53:57.390	COM3_115200	2000-0-0 0:7:51.685	0,601	0,500	1,261	-5,493	4,333	15,747	-21,506	-43,643	123,547				36,70															
01:53:57.408	COM3_115200	2000-0-0 0:7:51.705	0,529	0,503	1,246	-2,686	20,203	17,151	-21,187	-42,979	123,684				36,73															
01:53:57.408	COM8_115200	2000-0-0 0:5:44.520	0,650	-0,499	1,373	1,648	-1,648	-10,193	21,956	-34,415	-47,510				34,11															
01:53:57.424	COM8_115200	2000-0-0 0:5:44.540	0,568	-0,493	1,353	-2,014	1,953	-13,123	21,566	-34,184	-47,725				34,02															
01:53:57.424	COM3_115200	2000-0-0 0:7:51.725	0,575	0,521	1,272	2,319	17,639	15,747	-20,748	-42,220	123,772				36,67															
01:53:57.438	COM8_115200	2000-0-0 0:5:44.560	0,614	-0,498	1,332	-7,141	1,465	-14,160	21,116	-33,915	-47,983				34,24															
01:53:57.455	COM3_115200	2000-0-0 0:7:51.745	0,619	0,497	1,283	6,958	3,784	11,475	-20,237	-41,732	123,909				36,57															
01:53:57.471	COM8_115200	2000-0-0 0:5:44.580	0,594	-0,522	1,328	-12,939	-2,686	-16,968	20,605	-33,690	-48,329				34,14															
01:53:57.471	COM3_115200	2000-0-0 0:7:51.765	0,563	0,474	1,287	13,245	1,099	10,559	-19,627	-41,418	124,058				36,60															
01:53:57.487	COM3_115200	2000-0-0 0:7:51.785	0,542	0,488	1,275	18,982	4,761	11,902	-18,918	-41,050	124,206				36,60															
01:53:57.487	COM8_115200	2000-0-0 0:5:44.600	0,549	-0,511	1,358	-15,930	1,465	-14,282	19,990	-33,453	-48,636				34,21															
01:53:57.509	COM3_115200	2000-0-0 0:7:51.805	0,504	0,480	1,246	25,146	8,118	15,259	-18,122	-40,633	124,398				36,60															
01:53:57.509	COM8_115200	2000-0-0 0:5:44.620	0,610	-0,487	1,371	-17,090	-0,793	-14,038	19,336	-33,228	-48,917				34,11															
01:53:57.526	COM8_115200	2000-0-0 0:5:44.640	0,609	-0,493	1,378	-16,663	-1,526	-15,991	18,704	-33,030	-49,246				34,08															
01:53:57.526	COM3_115200	2000-0-0 0:7:51.825	0,510	0,472	1,248	28,442	10,803	15,808	-17,260	-40,133	124,618				36,67															
01:53:57.542	COM8_115200	2000-0-0 0:5:44.660	0,602	-0,488	1,369	-16,418	-0,610	-17,517	18,111	-32,816	-49,603				34,02															
01:53:57.558	COM3_115200	2000-0-0 0:7:51.845	0,521	0,444	1,233	30,090	11,902	18,738	-16,381	-39,600	124,876				36,67															
01:53:57.558	COM8_115200	2000-0-0 0:5:44.680	0,620	-0,457	1,364	-15,259	-1,526	-19,592	17,551	-32,602	-49,993				34,08															
01:53:57.574	COM3_115200	2000-0-0 0:7:51.865	0,553	0,463	1,227	30,029	10,620	20,569	-15,562	-39,067	125,217				36,60															
01:53:57.591	COM8_115200	2000-0-0 0:5:44.700	0,634	-0,475	1,345	-14,709	-3,479	-21,545	17,062	-32,415	-50,460				34,17															
01:53:57.591	COM3_115200	2000-0-0 0:7:51.885	0,527	0,443	1,240	29,602	12,268	22,888	-14,788	-38,518	125,623				36,64															
01:53:57.609	COM8_115200	2000-0-0 0:5:44.720	0,655	-0,459	1,328	-14,771	-1,465	-23,132	16,600	-32,212	-50,955				34,05															
01:53:57.609	COM3_115200	2000-0-0 0:7:51.905	0,561	0,417	1,246	28,992	10,742	23,438	-14,063	-37,985	126,057				36,76															
01:53:57.625	COM3_115200	2000-0-0 0:7:51.925	0,543	0,395	1,248	28,687	9,277	25,269	-13,387	-37,507	126,563				36,73															
01:53:57.642	COM8_115200	2000-0-0 0:5:44.740	0,653	-0,461	1,313	-17,700	-0,916	-24,597	16,111	-31,987	-51,482				34,08															
01:53:57.659	COM3_115200	2000-0-0 0:7:51.945	0,569	0,393	1,223	28,931	8,301	26,489	-12,750	-37,035	127,106				36,67															
01:53:57.659	COM8_115200	2000-0-0 0:5:44.760	0,656	-0,445	1,338	-19,653	-1,282	-24,658	15,601	-31,772	-52,020				34,11															
01:53:57.659	COM8_115200	2000-0-0 0:5:44.780	0,673	-0,433	1,349	-20,386	-2,563	-25,208	15,073	-31,586	-52,581				34,05															
01:53:57.675	COM3_115200	2000-0-0 0:7:51.965	0,533	0,403	1,208	31,982	8,606	26,672	-12,096	-36,601	127,667				36,79															
01:53:57.691	COM8_115200	2000-0-0 0:5:44.800	0,654	-0,430	1,350	-21,057	-2,625	-26,367	14,557	-31,421	-53,152				34,14															
01:53:57.709	COM3_115200	2000-0-0 0:7:51.985	0,515	0,379	1,240	33,386	14,343	25,269	-11,382	-36,085	128,205				36,73															
01:53:57.709	COM3_115200	2000-0-0 0:7:52.005	0,596	0,358	1,228	35,767	5,310	25,146	-10,635	-35,700	128,754				36,64															
01:53:57.709	COM8_115200	2000-0-0 0:5:44.820	0,614	-0,427	1,322	-22,888	-2,014	-26,428	14,019	-31,245	-53,740				34,11															
01:53:57.741	COM8_115200	2000-0-0 0:5:44.840	0,666	-0,438	1,363	-25,269	-1,831	-24,292	13,436	-31,097	-54,311				34,21															
01:53:57.741	COM3_115200	2000-0-0 0:7:52.025	0,583	0,353	1,234	37,415	2,502	23,071	-9,871	-35,431	129,304				36,76															
01:53:57.741	COM8_115200	2000-0-0 0:5:44.860	0,649	-0,349	1,339	-25,940	2,075	-26,367	12,843	-30,883	-54,877				34,24															
01:53:57.773	COM8_115200	2000-0-0 0:5:44.880	0,707	-0,393	1,326	-28,320	3,052	-25,208	12,217	-30,635	-55,426				34,05															
01:53:57.789	COM8_115200	2000-0-0 0:5:44.900	0,642	-0,345	1,331	-31,311	4,150	-25,085	11,530	-30,405	-55,964				34,11															
01:53:57.789	COM3_115200	2000-0-0 0:7:52.045	0,665	0,341	1,235	40,161	4,761	23,132	-9,069	-35,140	129,836				36,73															
01:53:57.789	COM3_115200	2000-0-0 0:7:52.065	0,498	0,308	1,213	42,725	12,878	23,499	-8,212	-34,761	130,347				36,57															
01:53:57.789	COM3_115200	2000-0-0 0:7:52.085	0,585	0,272	1,227	43,884	13,977	22,522	-7,333	-34,261	130,847				36,79															
01:53:57.809	COM8_115200	2000-0-0 0:5:44.920	0,684	-0,340	1,311	-33,142	0,854	-26,550	10,844	-30,190	-56,536				34,08															
01:53:57.809	COM3_115200	2000-0-0 0:7:52.105	0,631	0,244	1,186	45,959	-1,770	23,193	-6,432	-34,014	131,375				36,57															
01:53:57.825	COM8_115200	2000-0-0 0:5:44.940	0,698	-0,323	1,332	-33,386	-1,709	-26,672	10,162	-30,053	-57,162				34,14															
01:53:57.825	COM3_115200	2000-0-0 0:7:52.125	0,695	0,235	1,181	47,485	-0,061	24,353	-5,543	-33,876	131,924				36,67															
01:53:57.842	COM8_115200	2000-0-0 0:5:44.960	0,730	-0,297	1,294	-32,654	-0,488	-30,151	9,520	-29,921	-57,805				34,24															
01:53:57.869	COM3_115200	2000-0-0 0:7:52.145	0,759	0,213	1,161	47,668	7,507	25,574	-4,664	-33,651	132,490				36,70															
01:53:57.872	COM8_115200	2000-0-0 0:5:44.980	0,767	-0,293	1,252	-34,302	-4,272	-29,968	8,904	-29,833	-58,508				34,08															
01:53:57.881	COM3_115200	2000-0-0 0:7:52.165	0,539	0,209	1,182	46,326	26,611	32,715	-3,873	-33,129	133,187				36,54															
01:53:57.909	COM8_115200	2000-0-0 0:5:45.000	0,760	-0,259	1,233	-37,292	-4,089	-33,752	8,267	-29,789	-59,255				34,08															
01:53:57.909	COM8_115200	2000-0-0 0:5:45.020	0,788	-0,256	1,221	-39,368	-4,944	-37,842	7,646	-29,740	-60,090				33,99															
01:53:57.909	COM3_115200	2000-0-0 0:7:52.185	0,734	0,153	1,149	46,692	13,428	33,997	-3,164	-32,607	133,962				36,60															
01:53:57.909	COM3_115200	2000-0-0 0:7:52.205	0,623	0,151	1,110	47,852	-0,977	36,438	-2,488	-32,481	134,802				36,64															
01:53:57.926	COM8_115200	2000-0-0 0:5:45.040	0,765	-0,227	1,225	-42,480	-7,690	-41,748	7,026	-29,762	-61,035				34,14															
01:53:57.926	COM3_115200	2000-0-0 0:7:52.225	0,684	0,133	1,113	51,086	-8,728	37,720	-1,818	-32,481	135,709				36,67															
01:53:57.942	COM8_115200	2000-0-0 0:5:45.060	0,755	-0,223	1,229	-44,678	-9,033	-45,349	6,422	-29,817	-62,051				34,11															
01:53:57.942	COM3_115200	2000-0-0 0:7:52.245	0,724	0,130	1,161	54,993	-5,615	40,771	-1,115	-32,580	136,664				36,64															
01:53:57.975	COM3_115200	2000-0-0 0:7:52.265	0,615	0,141	1,139	57,800	16,296	43,945	-0,401	-32,355	137,697				36,57															
01:53:57.991	COM8_115200	2000-0-0 0:5:45.080	0,682	-0,237	1,265	-46,021	-9,460	-47,485	5,823	-29,905	-63,160				34,08															
01:53:57.991	COM8_115200	2000-0-0 0:5:45.100	0,681	-0,190	1,226	-47,791	-5,005	-51,392	5,240	-29,921	-64,292				34,11															
01:53:57.991	COM3_115200	2000-0-0 0:7:52.285	0,636	0,120	1,199	57,861	23,865	48,645	0,264	-31,855	138,823				36,64															
01:53:58.009	COM8_115200	2000-0-0 0:5:45.120	0,687	-0,193	1,219	-49,927	-7,629	-49,744	4,647	-29,971	-65,479				34,08															
01:53:58.009	COM3_115200	2000-0-0 0:7:52.305	0,663	0,077	1,174	58,960	17,029	50,049	0,939	-31,437	139,971				36,70															
01:53:58.027	COM8_115200	2000-0-0 0:5:45.140	0,693	-0,181	1,224	-54,626	-3,784	-51,514	4,005	-29,998	-66,671				34,05															
01:53:58.027	COM3_115200	2000-0-0 0:7:52.325	0,668	0,063	1,187	61,523	19,470	48,035	1,626	-31,064	141,136				36,64															
01:53:58.043	COM8_115200	2000-0-0 0:5:45.160	0,682	-0,154	1,227	-58,960	1,953	-53,040	3,285	-29,921	-67,874				34,08															
01:53:58.043	COM3_115200	2000-0-0 0:7:52.345	0,713	0,030	1,181	65,491	26,123	50,781	2,351	-30,613	142,339				36,67															
01:53:58.074	COM8_115200	2000-0-0 0:5:45.180	0,672	-0,127	1,250	-62,439	3,601	-55,359	2,538	-29,817	-69,126				34,14															
01:53:58.074	COM3_115200	2000-0-0 0:7:52.365	0,591	0,017	1,154	67,993	40,344	51,758	3,104	-29,976	143,586				36,67															
01:53:58.110	COM8_115200	2000-0-0 0:5:45.200	0,666	-0,103	1,259	-61,035	3,723	-55,603	1,813	-29,685	-70,417				34,02															
01:53:58.110	COM3_115200	2000-0-0 0:7:52.385	0,640	-0,043	1,180	69,824	36,255	50,659	3,873	-29,207	144,844				36,64															
01:53:58.110	COM3_115200	2000-0-0 0:7:52.405	0,693	-0,069	1,178	74,951	23,193	51,453	4,735	-28,746	146,074				36,57															
01:53:58.110	COM8_115200	2000-0-0 0:5:45.220	0,682	-0,070	1,243	-61,035	1,221	-57,617	1,126	-29,592	-71,724				34,14															
01:53:58.126	COM8_115200	2000-0-0 0:5:45.240	0,628	-0,055	1,234	-61,523	-0,366	-57,007	0,450	-29,564	-73,032				34,17															
01:53:58.126	COM3_115200	2000-0-0 0:7:52.425	0,646	-0,075	1,219	74,585	32,166	51,514	5,609	-28,295	147,316				36,67															
01:53:58.142	COM8_115200	2000-0-0 0:5:45.260	0,648	-0,022	1,287	-63,904	-1,953	-56,946	-0,242	-29,575	-74,333				34,14															
01:53:58.158	COM3_115200	2000-0-0 0:7:52.445	0,608	-0,113	1,203	75,378	36,499	52,979	6,454	-27,708	148,601				36,73															
01:53:58.174	COM3_115200	2000-0-0 0:7:52.465	0,577	-0,135	1,250	75,317	28,687	51,331	7,284	-27,219	149,886				36,57															
01:53:58.174	COM8_115200	2000-0-0 0:5:45.280	0,651	0,028	1,281	-62,012	-1,099	-54,993	-0,917	-29,592	-75,619				34,17															
01:53:58.189	COM8_115200	2000-0-0 0:5:45.300	0,645	0,052	1,261	-61,890	-2,502	-54,688	-1,555	-29,619	-76,882				34,14															
01:53:58.189	COM3_115200	2000-0-0 0:7:52.485	0,620	-0,174	1,269	77,271	18,921	47,546	8,168	-26,900	151,057				36,60															
01:53:58.210	COM8_115200	2000-0-0 0:5:45.320	0,657	0,089	1,246	-63,477	-2,197	-52,490	-2,219	-29,685	-78,096				34,17															
01:53:58.210	COM3_115200	2000-0-0 0:7:52.505	0,678	-0,221	1,293	78,491	7,080	40,527	9,135	-26,834	152,067				36,64															
01:53:58.226	COM3_115200	2000-0-0 0:7:52.525	0,619	-0,207	1,332	77,515	15,747	45,349	10,080	-26,735	153,089				36,76															
01:53:58.242	COM8_115200	2000-0-0 0:5:45.340	0,607	0,133	1,313	-66,467	-6,714	-49,622	-2,950	-29,789	-79,244				34,17															
01:53:58.242	COM8_115200	2000-0-0 0:5:45.360	0,661	0,141	1,354	-64,392	-7,324	-47,241	-3,669	-29,987	-80,349				34,21															
01:53:58.273	COM3_115200	2000-0-0 0:7:52.545	0,531	-0,254	1,330	75,745	21,240	44,739	10,937	-26,526	154,155				36,67															
01:53:58.273	COM3_115200	2000-0-0 0:7:52.565	0,530	-0,251	1,362	75,073	20,447	41,199	11,766	-26,274	155,209				36,70															
01:53:58.273	COM8_115200	2000-0-0 0:5:45.380	0,623	0,199	1,284	-62,988	-3,601	-45,898	-4,351	-30,103	-81,392				34,11															
01:53:58.289	COM3_115200	2000-0-0 0:7:52.585	0,670	-0,318	1,417	76,477	8,545	34,058	12,667	-26,169	156,088				36,73															
01:53:58.289	COM8_115200	2000-0-0 0:5:45.400	0,638	0,242	1,313	-64,880	-5,554	-41,443	-5,037	-30,229	-82,381				34,17															
01:53:58.314	COM8_115200	2000-0-0 0:5:45.420	0,603	0,254	1,367	-67,383	-12,268	-40,222	-5,790	-30,443	-83,304				34,14															
01:53:58.314	COM3_115200	2000-0-0 0:7:52.605	0,599	-0,305	1,422	73,975	7,996	31,738	13,596	-26,147	156,830				36,70															
01:53:58.330	COM3_115200	2000-0-0 0:7:52.625	0,629	-0,348	1,421	68,909	8,911	31,006	14,414	-26,098	157,560				36,73															
01:53:58.330	COM8_115200	2000-0-0 0:5:45.440	0,590	0,255	1,379	-61,523	-7,996	-36,255	-6,487	-30,685	-84,172				34,17															
01:53:58.346	COM8_115200	2000-0-0 0:5:45.460	0,612	0,328	1,322	-59,326	-5,920	-34,058	-7,103	-30,817	-84,968				34,14															
01:53:58.346	COM3_115200	2000-0-0 0:7:52.645	0,618	-0,392	1,447	65,735	9,033	30,640	15,139	-26,076	158,286				36,70															
01:53:58.362	COM3_115200	2000-0-0 0:7:52.665	0,629	-0,459	1,457	62,073	7,263	30,640	15,765	-26,043	159,016				36,60															
01:53:58.378	COM8_115200	2000-0-0 0:5:45.480	0,618	0,345	1,292	-61,768	-8,301	-32,959	-7,723	-30,970	-85,743				34,08															
01:53:58.394	COM3_115200	2000-0-0 0:7:52.685	0,712	-0,477	1,441	60,303	1,160	29,724	16,348	-26,115	159,686				36,70															
01:53:58.394	COM8_115200	2000-0-0 0:5:45.500	0,576	0,366	1,297	-64,026	-4,761	-34,851	-8,394	-31,130	-86,506				34,08															
01:53:58.410	COM8_115200	2000-0-0 0:5:45.520	0,636	0,356	1,400	-58,838	-6,836	-31,372	-8,976	-31,267	-87,275				34,08															
01:53:58.410	COM3_115200	2000-0-0 0:7:52.705	0,677	-0,523	1,449	57,983	-3,784	32,410	16,864	-26,285	160,356				36,60															
01:53:58.457	COM8_115200	2000-0-0 0:5:45.540	0,594	0,403	1,369	-55,481	-3,967	-31,006	-9,525	-31,404	-87,962				34,17															
01:53:58.457	COM8_115200	2000-0-0 0:5:45.560	0,596	0,415	1,280	-54,565	0,000	-30,090	-9,959	-31,437	-88,676				34,08															
01:53:58.457	COM3_115200	2000-0-0 0:7:52.725	0,635	-0,549	1,429	58,105	-4,578	31,311	17,353	-26,532	161,010				36,73															
01:53:58.457	COM3_115200	2000-0-0 0:7:52.745	0,619	-0,565	1,438	58,105	-2,380	31,006	17,825	-26,741	161,664				36,67															
01:53:58.473	COM8_115200	2000-0-0 0:5:45.580	0,472	0,490	1,226	-61,523	-3,113	-30,640	-10,481	-31,503	-89,385				34,14															
01:53:58.473	COM3_115200	2000-0-0 0:7:52.765	0,609	-0,540	1,460	59,509	-1,160	30,273	18,298	-26,944	162,318				36,64															
01:53:58.489	COM8_115200	2000-0-0 0:5:45.600	0,615	0,399	1,507	-57,068	-13,306	-28,503	-11,030	-31,707	-90,044				34,02															
01:53:58.489	COM3_115200	2000-0-0 0:7:52.785	0,593	-0,545	1,466	59,265	3,052	31,067	18,743	-27,065	163,004				36,60															
01:53:58.510	COM3_115200	2000-0-0 0:7:52.805	0,545	-0,521	1,494	56,396	1,099	30,518	19,138	-27,191	163,702				36,67															
01:53:58.510	COM8_115200	2000-0-0 0:5:45.620	0,542	0,432	1,452	-56,946	-13,428	-24,353	-11,569	-31,998	-90,604				34,08															
01:53:58.543	COM8_115200	2000-0-0 0:5:45.640	0,529	0,481	1,331	-48,157	-0,793	-27,405	-11,920	-32,080	-91,225				34,08															
01:53:58.543	COM8_115200	2000-0-0 0:5:45.660	0,545	0,548	1,406	-50,232	-8,423	-26,794	-12,244	-32,184	-91,857				34,17															
01:53:58.543	COM3_115200	2000-0-0 0:7:52.825	0,568	-0,523	1,495	54,565	4,272	28,564	19,484	-27,285	164,377				36,64															
01:53:58.543	COM3_115200	2000-0-0 0:7:52.845	0,594	-0,573	1,539	50,537	13,184	28,687	19,737	-27,197	165,097				36,64															
01:53:58.559	COM8_115200	2000-0-0 0:5:45.680	0,550	0,471	1,452	-46,509	-7,202	-25,208	-12,535	-32,338	-92,461				34,17															
01:53:58.559	COM3_115200	2000-0-0 0:7:52.865	0,561	-0,586	1,541	49,377	16,541	29,968	19,935	-27,032	165,850				36,64															
01:53:58.591	COM8_115200	2000-0-0 0:5:45.700	0,546	0,542	1,382	-42,603	-1,709	-23,621	-12,744	-32,382	-93,027				34,02															
01:53:58.591	COM3_115200	2000-0-0 0:7:52.885	0,531	-0,548	1,557	45,349	19,958	29,236	20,067	-26,834	166,624				36,64															
01:53:58.610	COM8_115200	2000-0-0 0:5:45.720	0,482	0,581	1,384	-45,288	-0,977	-23,926	-12,958	-32,393	-93,598				34,08															
01:53:58.610	COM3_115200	2000-0-0 0:7:52.905	0,561	-0,570	1,581	41,382	18,372	28,137	20,089	-26,592	167,426				36,60															
01:53:58.627	COM3_115200	2000-0-0 0:7:52.925	0,557	-0,621	1,576	38,879	20,203	29,907	20,067	-26,329	168,212				36,70															
01:53:58.627	COM8_115200	2000-0-0 0:5:45.740	0,529	0,565	1,428	-43,457	-3,662	-23,376	-13,145	-32,404	-94,180				34,24															
01:53:58.643	COM8_115200	2000-0-0 0:5:45.760	0,567	0,576	1,413	-43,579	-6,165	-23,010	-13,326	-32,481	-94,730				34,02															
01:53:58.643	COM3_115200	2000-0-0 0:7:52.945	0,590	-0,630	1,607	36,804	18,066	29,114	19,984	-26,098	169,003				36,70															
01:53:58.658	COM8_115200	2000-0-0 0:5:45.780	0,541	0,603	1,418	-43,518	-5,615	-21,973	-13,519	-32,552	-95,257				34,14															
01:53:58.675	COM3_115200	2000-0-0 0:7:52.965	0,622	-0,659	1,616	34,851	14,038	27,771	19,891	-25,917	169,739				36,64															
01:53:58.691	COM3_115200	2000-0-0 0:7:52.985	0,526	-0,750	1,607	34,424	12,756	29,480	19,781	-25,752	170,447				36,73															
01:53:58.691	COM8_115200	2000-0-0 0:5:45.800	0,549	0,606	1,447	-44,983	-2,808	-22,400	-13,711	-32,569	-95,801				34,08															
01:53:58.711	COM8_115200	2000-0-0 0:5:45.820	0,507	0,602	1,443	-44,373	0,671	-21,851	-13,914	-32,552	-96,323				34,11															
01:53:58.711	COM3_115200	2000-0-0 0:7:53.005	0,503	-0,714	1,624	37,048	6,470	27,954	19,726	-25,697	171,112				36,64															
01:53:58.727	COM8_115200	2000-0-0 0:5:45.840	0,510	0,639	1,432	-46,021	-4,822	-20,813	-14,101	-32,542	-96,850				34,11															
01:53:58.742	COM3_115200	2000-0-0 0:7:53.025	0,559	-0,679	1,651	38,208	2,075	24,536	19,731	-25,724	171,689				36,73															
01:53:58.758	COM8_115200	2000-0-0 0:5:45.860	0,512	0,594	1,464	-47,058	-10,010	-20,203	-14,359	-32,662	-97,322				34,14															
01:53:58.758	COM3_115200	2000-0-0 0:7:53.045	0,498	-0,739	1,616	33,875	3,601	24,475	19,698	-25,714	172,216				36,67															
01:53:58.774	COM8_115200	2000-0-0 0:5:45.880	0,524	0,659	1,476	-47,058	-9,399	-22,339	-14,601	-32,794	-97,806				34,14															
01:53:58.774	COM3_115200	2000-0-0 0:7:53.065	0,582	-0,696	1,645	34,790	-1,038	21,790	19,682	-25,757	172,689				36,60															
01:53:58.789	COM8_115200	2000-0-0 0:5:45.900	0,506	0,654	1,498	-48,340	-9,705	-20,996	-14,865	-32,926	-98,300				34,17															
01:53:58.789	COM3_115200	2000-0-0 0:7:53.085	0,489	-0,765	1,637	34,363	-3,357	22,278	19,682	-25,884	173,139				36,57															
01:53:58.827	COM8_115200	2000-0-0 0:5:45.920	0,480	0,625	1,479	-44,678	-6,531	-19,531	-15,095	-33,036	-98,751				34,17															
01:53:58.827	COM3_115200	2000-0-0 0:7:53.105	0,544	-0,735	1,664	34,912	-5,432	23,560	19,638	-26,016	173,633				36,64															
01:53:58.827	COM3_115200	2000-0-0 0:7:53.125	0,503	-0,765	1,665	34,485	-9,155	22,949	19,622	-26,208	174,078				36,60															
01:53:58.843	COM8_115200	2000-0-0 0:5:45.940	0,472	0,662	1,520	-42,236	-7,263	-20,935	-15,260	-33,113	-99,223				33,99															
01:53:58.843	COM8_115200	2000-0-0 0:5:45.960	0,467	0,688	1,515	-43,274	-7,935	-19,714	-15,392	-33,195	-99,717				34,11															
01:53:58.843	COM3_115200	2000-0-0 0:7:53.145	0,476	-0,771	1,637	33,875	-9,094	23,804	19,583	-26,433	174,523				36,70															
01:53:58.859	COM3_115200	2000-0-0 0:7:53.165	0,529	-0,762	1,689	34,180	-4,211	22,156	19,545	-26,581	174,979				36,64															
01:53:58.875	COM8_115200	2000-0-0 0:5:45.980	0,491	0,669	1,551	-40,283	-6,287	-20,020	-15,491	-33,245	-100,212				34,14															
01:53:58.891	COM3_115200	2000-0-0 0:7:53.185	0,461	-0,787	1,688	33,386	-3,418	20,996	19,490	-26,658	175,441				36,64															
01:53:58.891	COM8_115200	2000-0-0 0:5:46.000	0,456	0,682	1,522	-37,720	-6,653	-19,165	-15,546	-33,294	-100,679				34,14															
01:53:58.911	COM8_115200	2000-0-0 0:5:46.020	0,438	0,735	1,559	-37,048	-7,141	-19,104	-15,573	-33,338	-101,146				34,14															
01:53:58.912	COM3_115200	2000-0-0 0:7:53.205	0,470	-0,741	1,687	33,691	-0,732	18,372	19,457	-26,686	175,864				36,70															
01:53:58.931	COM8_115200	2000-0-0 0:5:46.040	0,482	0,686	1,581	-34,546	-6,531	-17,700	-15,579	-33,387	-101,585				34,05															
01:53:58.936	COM3_115200	2000-0-0 0:7:53.225	0,482	-0,745	1,713	32,166	3,052	16,479	19,424	-26,647	176,254				36,82															
01:53:58.952	COM3_115200	2000-0-0 0:7:53.245	0,467	-0,785	1,712	29,907	9,766	15,930	19,319	-26,477	176,682				36,73															
01:53:58.953	COM8_115200	2000-0-0 0:5:46.060	0,442	0,733	1,540	-28,870	6,348	-17,944	-15,480	-33,256	-102,063				34,08															
01:53:58.976	COM3_115200	2000-0-0 0:7:53.265	0,454	-0,747	1,715	28,931	15,991	13,977	19,193	-26,180	177,116				36,70															
01:53:58.976	COM8_115200	2000-0-0 0:5:46.080	0,486	0,770	1,580	-27,466	7,996	-18,005	-15,276	-32,981	-102,596				34,08															
01:53:58.992	COM3_115200	2000-0-0 0:7:53.285	0,491	-0,765	1,727	29,114	19,592	10,559	19,089	-25,785	177,512				36,60															
01:53:58.992	COM8_115200	2000-0-0 0:5:46.100	0,455	0,759	1,593	-27,161	6,287	-14,832	-15,112	-32,750	-103,052				34,08															
01:53:59.011	COM8_115200	2000-0-0 0:5:46.120	0,424	0,804	1,549	-25,024	9,949	-17,273	-14,892	-32,465	-103,535				34,11															
01:53:59.011	COM3_115200	2000-0-0 0:7:53.305	0,513	-0,792	1,770	29,968	22,217	8,179	19,012	-25,307	177,869				36,73															
01:53:59.027	COM3_115200	2000-0-0 0:7:53.325	0,528	-0,823	1,775	30,457	23,071	6,775	18,962	-24,774	178,193				36,64															
01:53:59.027	COM8_115200	2000-0-0 0:5:46.140	0,440	0,831	1,581	-28,809	3,418	-17,151	-14,700	-32,228	-104,030				34,11															
01:53:59.043	COM3_115200	2000-0-0 0:7:53.345	0,503	-0,839	1,765	27,466	25,940	9,033	18,885	-24,241	178,500				36,76															
01:53:59.043	COM8_115200	2000-0-0 0:5:46.160	0,469	0,854	1,612	-31,677	1,465	-14,160	-14,606	-32,075	-104,447				33,95															
01:53:59.059	COM3_115200	2000-0-0 0:7:53.365	0,505	-0,865	1,807	28,687	15,198	11,047	18,792	-23,824	178,841				36,67															
01:53:59.075	COM8_115200	2000-0-0 0:5:46.180	0,406	0,831	1,582	-30,823	4,089	-12,695	-14,546	-31,888	-104,832				34,14															
01:53:59.091	COM3_115200	2000-0-0 0:7:53.385	0,444	-0,903	1,833	32,043	6,042	12,390	18,754	-23,582	179,143				36,60															
01:53:59.091	COM8_115200	2000-0-0 0:5:46.200	0,425	0,797	1,597	-32,715	0,854	-14,221	-14,496	-31,718	-105,216				34,14															
01:53:59.111	COM3_115200	2000-0-0 0:7:53.405	0,432	-0,860	1,839	34,180	0,977	12,085	18,792	-23,494	179,390				36,57															
01:53:59.111	COM8_115200	2000-0-0 0:5:46.220	0,405	0,849	1,602	-34,363	1,831	-14,893	-14,485	-31,553	-105,595				34,11															
01:53:59.128	COM8_115200	2000-0-0 0:5:46.240	0,422	0,842	1,635	-34,973	1,953	-14,221	-14,464	-31,366	-105,996				34,08															
01:53:59.128	COM3_115200	2000-0-0 0:7:53.425	0,524	-0,786	1,863	31,555	-0,305	10,620	18,836	-23,439	179,610				36,64															
01:53:59.141	COM3_115200	2000-0-0 0:7:53.445	0,507	-0,785	1,846	24,109	0,000	11,963	18,765	-23,390	179,830				36,73															
01:53:59.141	COM8_115200	2000-0-0 0:5:46.260	0,386	0,782	1,675	-32,715	4,639	-13,672	-14,447	-31,174	-106,375				34,11															
01:53:59.211	COM8_115200	2000-0-0 0:5:46.280	0,372	0,820	1,678	-29,541	6,714	-15,808	-14,354	-30,921	-106,798				34,02															
01:53:59.227	COM8_115200	2000-0-0 0:5:46.300	0,409	0,833	1,663	-29,480	5,554	-15,564	-14,249	-30,663	-107,205				34,14															
01:53:59.227	COM8_115200	2000-0-0 0:5:46.320	0,388	0,843	1,668	-29,602	4,639	-15,991	-14,139	-30,432	-107,628				33,95															
01:53:59.227	COM8_115200	2000-0-0 0:5:46.340	0,372	0,849	1,658	-27,039	5,981	-16,724	-13,986	-30,190	-108,067				34,08															
01:53:59.227	COM3_115200	2000-0-0 0:7:53.465	0,447	-0,862	1,823	17,700	1,404	15,808	18,528	-23,329	-179,879				36,64															
01:53:59.227	COM3_115200	2000-0-0 0:7:53.485	0,429	-0,895	1,875	19,531	-1,831	17,456	18,248	-23,329	-179,550				36,67															
01:53:59.258	COM8_115200	2000-0-0 0:5:46.360	0,383	0,789	1,731	-25,330	5,798	-17,334	-13,788	-29,949	-108,534				34,08															
01:53:59.258	COM3_115200	2000-0-0 0:7:53.505	0,450	-0,857	1,894	22,705	-4,211	17,578	18,040	-23,384	-179,236				36,70															
01:53:59.258	COM3_115200	2000-0-0 0:7:53.525	0,432	-0,847	1,872	22,278	-5,432	16,113	17,869	-23,450	-178,940				36,60															
01:53:59.258	COM3_115200	2000-0-0 0:7:53.545	0,479	-0,813	1,860	18,982	-8,057	14,832	17,655	-23,549	-178,676				36,70															
01:53:59.274	COM3_115200	2000-0-0 0:7:53.565	0,433	-0,908	1,858	15,686	-3,540	15,686	17,358	-23,593	-178,380				36,79															
01:53:59.274	COM8_115200	2000-0-0 0:5:46.380	0,375	0,842	1,686	-22,217	5,798	-16,357	-13,557	-29,696	-108,968				34,08															
01:53:59.290	COM8_115200	2000-0-0 0:5:46.400	0,404	0,871	1,693	-20,630	2,625	-15,137	-13,282	-29,482	-109,374				34,17															
01:53:59.290	COM3_115200	2000-0-0 0:7:53.585	0,438	-0,887	1,855	17,151	-3,906	15,564	17,062	-23,632	-178,088				36,67															
01:53:59.311	COM3_115200	2000-0-0 0:7:53.605	0,430	-0,874	1,884	18,250	-6,470	16,724	16,787	-23,676	-177,781				36,60															
01:53:59.311	COM8_115200	2000-0-0 0:5:46.420	0,404	0,857	1,721	-22,522	-0,122	-14,221	-13,063	-29,317	-109,731				34,02															
01:53:59.327	COM3_115200	2000-0-0 0:7:53.625	0,367	-0,902	1,859	19,226	-9,644	17,578	16,540	-23,791	-177,473				36,73															
01:53:59.327	COM8_115200	2000-0-0 0:5:46.440	0,329	0,864	1,681	-20,752	2,380	-15,198	-12,843	-29,147	-110,089				34,02															
01:53:59.344	COM8_115200	2000-0-0 0:5:46.460	0,374	0,833	1,721	-21,057	2,380	-15,137	-12,607	-28,965	-110,462				34,08															
01:53:59.344	COM3_115200	2000-0-0 0:7:53.645	0,383	-0,867	1,854	20,874	-11,902	15,747	16,337	-23,961	-177,220				36,64															
01:53:59.360	COM3_115200	2000-0-0 0:7:53.665	0,433	-0,814	1,869	21,301	-7,935	12,329	16,172	-24,077	-176,990				36,70															
01:53:59.360	COM8_115200	2000-0-0 0:5:46.480	0,414	0,818	1,760	-20,081	4,700	-12,817	-12,382	-28,740	-110,808				34,05															
01:53:59.391	COM3_115200	2000-0-0 0:7:53.685	0,431	-0,880	1,851	21,118	-0,916	7,813	16,018	-24,033	-176,797				36,67															
01:53:59.391	COM8_115200	2000-0-0 0:5:46.500	0,358	0,890	1,741	-14,893	2,991	-11,414	-12,085	-28,493	-111,121				34,08															
01:53:59.407	COM3_115200	2000-0-0 0:7:53.705	0,403	-0,860	1,849	23,193	-1,648	6,531	15,914	-23,939	-176,660				36,70															
01:53:59.411	COM8_115200	2000-0-0 0:5:46.520	0,379	0,900	1,760	-14,832	-2,136	-10,803	-11,766	-28,334	-111,401				34,11															
01:53:59.427	COM3_115200	2000-0-0 0:7:53.725	0,424	-0,907	1,877	27,222	-3,418	7,568	15,848	-23,862	-176,512				36,67															
01:53:59.427	COM8_115200	2000-0-0 0:5:46.540	0,408	0,908	1,765	-15,930	-2,930	-10,803	-11,492	-28,235	-111,649				34,24															
01:53:59.443	COM8_115200	2000-0-0 0:5:46.560	0,376	0,924	1,744	-15,747	-3,601	-9,155	-11,255	-28,120	-111,863				34,24															
01:53:59.458	COM3_115200	2000-0-0 0:7:53.745	0,343	-0,916	1,884	25,513	-0,671	10,254	15,804	-23,796	-176,314				36,70															
01:53:59.458	COM3_115200	2000-0-0 0:7:53.765	0,383	-0,864	1,908	24,719	-2,808	10,315	15,738	-23,730	-176,100				36,60															
01:53:59.474	COM8_115200	2000-0-0 0:5:46.580	0,347	0,899	1,724	-14,587	-12,451	-7,141	-11,025	-28,109	-112,017				33,99															
01:53:59.490	COM8_115200	2000-0-0 0:5:46.600	0,329	0,888	1,750	-14,099	-19,653	-9,094	-10,794	-28,295	-112,137				34,11															
01:53:59.490	COM3_115200	2000-0-0 0:7:53.785	0,427	-0,899	1,901	22,827	-0,488	9,949	15,601	-23,648	-175,875				36,64															
01:53:59.511	COM8_115200	2000-0-0 0:5:46.620	0,356	0,937	1,768	-15,564	-18,677	-11,169	-10,552	-28,488	-112,297				34,14															
01:53:59.511	COM3_115200	2000-0-0 0:7:53.805	0,430	-0,910	1,897	19,836	2,075	11,841	15,414	-23,522	-175,616				36,82															
01:53:59.527	COM3_115200	2000-0-0 0:7:53.825	0,375	-0,894	1,905	17,822	1,099	13,916	15,194	-23,401	-175,342				36,57															
01:53:59.544	COM8_115200	2000-0-0 0:5:46.640	0,313	0,895	1,741	-15,808	-16,907	-10,742	-10,316	-28,652	-112,500				34,21															
01:53:59.544	COM8_115200	2000-0-0 0:5:46.660	0,328	0,856	1,705	-16,357	-16,602	-10,193	-10,096	-28,801	-112,698				34,08															
01:53:59.544	COM3_115200	2000-0-0 0:7:53.845	0,430	-0,892	1,985	19,165	-6,409	14,282	14,958	-23,379	-175,056				36,73															
01:53:59.576	COM8_115200	2000-0-0 0:5:46.680	0,313	0,886	1,711	-17,273	-18,982	-10,254	-9,888	-28,971	-112,879				34,08															
01:53:59.576	COM3_115200	2000-0-0 0:7:53.865	0,396	-0,898	1,981	19,958	-5,066	14,954	14,760	-23,428	-174,776				36,60															
01:53:59.576	COM3_115200	2000-0-0 0:7:53.885	0,389	-0,901	1,967	19,592	-5,127	13,123	14,573	-23,428	-174,512				36,67															
01:53:59.592	COM8_115200	2000-0-0 0:5:46.700	0,300	0,882	1,722	-19,653	-13,184	-7,935	-9,739	-29,086	-113,049				34,14															
01:53:59.608	COM3_115200	2000-0-0 0:7:53.905	0,426	-0,913	2,001	17,456	-10,010	10,376	14,376	-23,467	-174,304				36,82															
01:53:59.611	COM8_115200	2000-0-0 0:5:46.720	0,321	0,879	1,728	-17,822	-6,226	-7,751	-9,586	-29,053	-113,231				34,08															
01:53:59.628	COM8_115200	2000-0-0 0:5:46.740	0,304	0,887	1,746	-18,188	-3,723	-7,141	-9,415	-28,938	-113,412				34,24															
01:53:59.628	COM3_115200	2000-0-0 0:7:53.925	0,354	-0,884	2,004	15,747	-19,775	9,216	14,194	-23,676	-174,188				36,79															
01:53:59.645	COM3_115200	2000-0-0 0:7:53.945	0,339	-0,850	1,988	13,000	-21,240	7,874	13,986	-23,961	-174,122				36,79															
01:53:59.645	COM8_115200	2000-0-0 0:5:46.760	0,260	0,901	1,771	-17,944	1,526	-7,324	-9,250	-28,751	-113,604				34,08															
01:53:59.661	COM8_115200	2000-0-0 0:5:46.780	0,273	0,912	1,775	-14,221	10,010	-5,859	-9,025	-28,405	-113,818				34,17															
01:53:59.676	COM3_115200	2000-0-0 0:7:53.965	0,323	-0,905	1,960	9,949	-11,353	5,920	13,722	-24,142	-174,051				36,67															
01:53:59.676	COM3_115200	2000-0-0 0:7:53.985	0,314	-0,930	1,959	8,118	-8,118	4,211	13,409	-24,142	-173,974				36,67															
01:53:59.692	COM8_115200	2000-0-0 0:5:46.800	0,312	0,923	1,778	-10,681	14,465	-4,272	-8,745	-27,927	-114,000				34,14															
01:53:59.708	COM8_115200	2000-0-0 0:5:46.820	0,342	0,929	1,825	-10,132	14,832	-3,967	-8,443	-27,416	-114,159				34,08															
01:53:59.712	COM3_115200	2000-0-0 0:7:54.005	0,363	-0,880	1,971	6,287	-10,315	2,991	13,074	-24,175	-173,925				36,60															
01:53:59.728	COM3_115200	2000-0-0 0:7:54.025	0,346	-0,891	1,946	3,296	-4,333	1,770	12,706	-24,148	-173,892				36,67															
01:53:59.728	COM8_115200	2000-0-0 0:5:46.840	0,337	0,939	1,811	-7,080	15,686	-3,906	-8,113	-26,900	-114,313				34,11															
01:53:59.744	COM3_115200	2000-0-0 0:7:54.045	0,345	-0,935	1,945	1,343	-2,075	2,197	12,272	-24,022	-173,842				36,64															
01:53:59.744	COM8_115200	2000-0-0 0:5:46.860	0,320	0,933	1,833	-5,310	11,536	-3,540	-7,740	-26,428	-114,450				34,21															
01:53:59.760	COM3_115200	2000-0-0 0:7:54.065	0,339	-0,906	1,965	2,625	-4,272	0,793	11,860	-23,928	-173,809				36,64															
01:53:59.776	COM8_115200	2000-0-0 0:5:46.880	0,344	0,930	1,832	-3,113	7,813	-2,808	-7,350	-26,043	-114,549				34,08															
01:53:59.792	COM8_115200	2000-0-0 0:5:46.900	0,297	0,911	1,830	-1,892	6,104	-1,282	-6,954	-25,714	-114,615				34,14															
01:53:59.809	COM3_115200	2000-0-0 0:7:54.085	0,366	-0,897	1,958	2,563	-3,601	-1,648	11,481	-23,818	-173,820				36,67															
01:53:59.812	COM3_115200	2000-0-0 0:7:54.105	0,364	-0,890	1,965	-0,427	-4,150	-2,563	11,085	-23,719	-173,870				36,60															
01:53:59.827	COM8_115200	2000-0-0 0:5:46.920	0,304	0,905	1,817	0,549	4,761	1,160	-6,542	-25,395	-114,626				34,21															
01:53:59.827	COM3_115200	2000-0-0 0:7:54.125	0,353	-0,912	1,968	-2,930	-1,648	-2,380	10,629	-23,582	-173,908				36,60															
01:53:59.844	COM8_115200	2000-0-0 0:5:46.940	0,335	0,896	1,829	3,052	2,686	4,639	-6,130	-25,120	-114,554				34,17															
01:53:59.844	COM8_115200	2000-0-0 0:5:46.960	0,306	0,930	1,803	4,517	1,587	5,310	-5,696	-24,868	-114,434				34,14															
01:53:59.844	COM3_115200	2000-0-0 0:7:54.145	0,374	-0,935	1,971	-1,709	-2,747	-3,174	10,184	-23,445	-173,969				36,76															
01:53:59.860	COM3_115200	2000-0-0 0:7:54.165	0,379	-0,921	1,968	-1,770	-2,808	-4,272	9,761	-23,313	-174,051				36,67															
01:53:59.860	COM8_115200	2000-0-0 0:5:46.980	0,326	0,929	1,818	3,784	0,610	4,028	-5,257	-24,631	-114,335				34,21															
01:53:59.875	COM3_115200	2000-0-0 0:7:54.185	0,372	-0,924	1,973	-2,075	-6,592	-3,845	9,349	-23,231	-174,144				36,73															
01:53:59.892	COM8_115200	2000-0-0 0:5:47.000	0,304	0,936	1,812	3,845	0,916	3,357	-4,828	-24,412	-114,247				34,02															
01:53:59.912	COM8_115200	2000-0-0 0:5:47.020	0,313	0,924	1,805	4,456	0,549	4,333	-4,400	-24,203	-114,148				33,95															
01:53:59.928	COM3_115200	2000-0-0 0:7:54.205	0,350	-0,945	1,970	-2,686	-5,371	-2,502	8,915	-23,170	-174,221				36,64															
01:53:59.928	COM3_115200	2000-0-0 0:7:54.225	0,366	-0,938	1,962	-1,648	-3,601	-3,174	8,487	-23,077	-174,282				36,64															
01:53:59.944	COM8_115200	2000-0-0 0:5:47.040	0,352	0,930	1,816	5,615	0,427	4,211	-3,950	-23,989	-114,044				34,08															
01:53:59.944	COM3_115200	2000-0-0 0:7:54.245	0,364	-0,932	1,963	1,099	-3,479	-4,456	8,113	-22,967	-174,359				36,73															
01:53:59.944	COM8_115200	2000-0-0 0:5:47.060	0,340	0,934	1,826	6,165	-1,282	4,028	-3,488	-23,807	-113,939				34,17															
01:53:59.969	COM3_115200	2000-0-0 0:7:54.265	0,401	-0,926	1,949	1,953	-0,366	-5,066	7,789	-22,830	-174,457				36,70															
01:53:59.971	COM8_115200	2000-0-0 0:5:47.080	0,336	0,911	1,831	5,188	-2,319	4,883	-3,049	-23,654	-113,824				34,11															
01:53:59.990	COM3_115200	2000-0-0 0:7:54.285	0,381	-0,927	1,963	3,540	3,601	-5,371	7,493	-22,604	-174,556				36,70															
01:53:59.995	COM8_115200	2000-0-0 0:5:47.100	0,335	0,896	1,832	5,920	-1,892	5,615	-2,620	-23,511	-113,692				34,11															
01:54:00.009	COM3_115200	2000-0-0 0:7:54.305	0,375	-0,917	1,971	3,479	4,211	-5,554	7,213	-22,363	-174,655				36,67															
01:54:00.012	COM8_115200	2000-0-0 0:5:47.120	0,359	0,893	1,801	5,920	-1,160	8,667	-2,214	-23,362	-113,511				34,17															
01:54:00.028	COM3_115200	2000-0-0 0:7:54.325	0,381	-0,904	1,994	1,038	6,409	-4,089	6,883	-22,077	-174,727				36,82															
01:54:00.028	COM8_115200	2000-0-0 0:5:47.140	0,309	0,951	1,785	5,005	1,648	7,324	-1,829	-23,159	-113,324				34,08															
01:54:00.046	COM3_115200	2000-0-0 0:7:54.345	0,380	-0,928	1,982	0,122	4,761	-3,235	6,531	-21,813	-174,792				36,79															
01:54:00.046	COM8_115200	2000-0-0 0:5:47.160	0,320	0,933	1,810	3,418	2,686	6,104	-1,461	-22,939	-113,165				34,14															
01:54:00.062	COM3_115200	2000-0-0 0:7:54.365	0,366	-0,936	1,973	-1,038	5,005	-2,380	6,158	-21,566	-174,836				36,67															
01:54:00.078	COM8_115200	2000-0-0 0:5:47.180	0,343	0,922	1,811	4,089	3,479	5,310	-1,088	-22,698	-113,033				34,08															
01:54:00.078	COM3_115200	2000-0-0 0:7:54.385	0,371	-0,935	1,990	-2,930	7,629	-1,282	5,740	-21,281	-174,858				36,76															
01:54:00.094	COM8_115200	2000-0-0 0:5:47.200	0,366	0,948	1,801	6,042	2,625	5,310	-0,681	-22,456	-112,901				34,17															
01:54:00.112	COM8_115200	2000-0-0 0:5:47.220	0,333	0,927	1,799	7,385	1,526	4,395	-0,253	-22,258	-112,780				34,21															
01:54:00.112	COM3_115200	2000-0-0 0:7:54.405	0,361	-0,918	1,987	-3,784	7,813	-1,831	5,306	-20,989	-174,875				36,76															
01:54:00.128	COM3_115200	2000-0-0 0:7:54.425	0,367	-0,907	1,988	-5,188	8,484	-3,296	4,861	-20,676	-174,919				36,70															
01:54:00.128	COM8_115200	2000-0-0 0:5:47.240	0,335	0,927	1,807	8,606	2,502	3,418	0,209	-22,050	-112,681				34,14															
01:54:00.144	COM3_115200	2000-0-0 0:7:54.445	0,382	-0,909	1,989	-6,714	8,240	-5,005	4,406	-20,363	-175,007				36,67															
01:54:00.144	COM8_115200	2000-0-0 0:5:47.260	0,375	0,925	1,795	9,521	0,977	4,395	0,681	-21,857	-112,571				34,17															
01:54:00.160	COM3_115200	2000-0-0 0:7:54.465	0,392	-0,883	1,994	-8,728	5,615	-6,104	3,933	-20,094	-175,122				36,76															
01:54:00.176	COM8_115200	2000-0-0 0:5:47.280	0,333	0,906	1,800	11,230	-0,732	4,639	1,176	-21,709	-112,451				34,14															
01:54:00.176	COM3_115200	2000-0-0 0:7:54.485	0,343	-0,908	1,974	-12,329	8,911	-6,226	3,417	-19,803	-175,259				36,73															
01:54:00.190	COM8_115200	2000-0-0 0:5:47.300	0,346	0,910	1,803	12,146	-0,916	5,188	1,681	-21,577	-112,319				34,05															
01:54:00.207	COM8_115200	2000-0-0 0:5:47.320	0,369	0,893	1,799	13,306	-0,977	7,324	2,192	-21,451	-112,154				34,08															
01:54:00.212	COM3_115200	2000-0-0 0:7:54.505	0,355	-0,886	1,985	-13,062	2,258	-7,141	2,867	-19,567	-175,413				36,79															
01:54:00.228	COM3_115200	2000-0-0 0:7:54.525	0,352	-0,865	1,990	-13,489	-0,061	-8,789	2,329	-19,418	-175,600				36,64															
01:54:00.228	COM8_115200	2000-0-0 0:5:47.340	0,334	0,884	1,777	16,357	-0,122	8,057	2,725	-21,313	-111,962				34,17															
01:54:00.244	COM3_115200	2000-0-0 0:7:54.545	0,379	-0,859	1,972	-14,709	-1,770	-12,268	1,813	-19,319	-175,847				36,70															
01:54:00.260	COM8_115200	2000-0-0 0:5:47.360	0,356	0,884	1,781	17,212	-1,099	8,362	3,296	-21,187	-111,764				34,17															
01:54:00.292	COM8_115200	2000-0-0 0:5:47.380	0,362	0,873	1,776	17,761	0,244	10,132	3,851	-21,072	-111,539				34,17															
01:54:00.292	COM8_115200	2000-0-0 0:5:47.400	0,386	0,867	1,784	20,569	4,639	11,414	4,422	-20,885	-111,275				34,17															
01:54:00.292	COM3_115200	2000-0-0 0:7:54.565	0,365	-0,871	1,961	-18,188	-1,221	-14,038	1,252	-19,215	-176,149				36,67															
01:54:00.308	COM3_115200	2000-0-0 0:7:54.585	0,433	-0,869	1,967	-19,470	-4,028	-16,113	0,676	-19,144	-176,490				36,64															
01:54:00.312	COM8_115200	2000-0-0 0:5:47.420	0,396	0,864	1,779	22,888	7,019	13,428	5,026	-20,654	-110,967				34,11															
01:54:00.312	COM3_115200	2000-0-0 0:7:54.605	0,396	-0,873	1,950	-21,912	-2,075	-16,479	0,077	-19,089	-176,852				36,64															
01:54:00.329	COM8_115200	2000-0-0 0:5:47.440	0,397	0,894	1,742	24,841	6,470	13,367	5,663	-20,413	-110,638				34,14															
01:54:00.345	COM3_115200	2000-0-0 0:7:54.625	0,423	-0,879	1,942	-21,790	-5,676	-17,029	-0,533	-19,050	-177,226				36,73															
01:54:00.345	COM8_115200	2000-0-0 0:5:47.460	0,373	0,931	1,735	25,024	8,118	11,536	6,328	-20,154	-110,336				34,08															
01:54:00.345	COM3_115200	2000-0-0 0:7:54.645	0,439	-0,952	1,923	-21,912	-3,540	-14,954	-1,154	-19,023	-177,567				36,60															
01:54:00.361	COM3_115200	2000-0-0 0:7:54.665	0,408	-0,942	1,907	-21,240	-3,296	-14,221	-1,763	-19,006	-177,885				36,82															
01:54:00.361	COM8_115200	2000-0-0 0:5:47.480	0,375	0,895	1,732	23,682	7,507	10,925	6,965	-19,907	-110,061				34,08															
01:54:00.378	COM3_115200	2000-0-0 0:7:54.685	0,451	-0,934	1,910	-20,325	-0,671	-14,404	-2,357	-18,935	-178,204				36,60															
01:54:00.394	COM8_115200	2000-0-0 0:5:47.500	0,405	0,874	1,712	26,245	9,888	11,353	7,614	-19,644	-109,764				34,02															
01:54:00.410	COM3_115200	2000-0-0 0:7:54.705	0,427	-0,867	1,911	-20,203	-2,197	-15,869	-2,911	-18,891	-178,544				36,64															
01:54:00.412	COM8_115200	2000-0-0 0:5:47.520	0,412	0,857	1,713	27,222	7,263	10,742	8,295	-19,396	-109,473				34,21															
01:54:00.429	COM3_115200	2000-0-0 0:7:54.725	0,472	-0,850	1,897	-24,109	0,671	-15,320	-3,521	-18,809	-178,885				36,76															
01:54:00.429	COM8_115200	2000-0-0 0:5:47.540	0,348	0,840	1,698	29,480	6,592	10,132	9,003	-19,199	-109,199				34,11															
01:54:00.460	COM8_115200	2000-0-0 0:5:47.560	0,381	0,855	1,689	29,541	7,141	9,155	9,739	-18,984	-108,935				34,11															
01:54:00.460	COM8_115200	2000-0-0 0:5:47.580	0,423	0,846	1,707	27,405	5,493	11,658	10,421	-18,792	-108,655				34,11															
01:54:00.476	COM3_115200	2000-0-0 0:7:54.745	0,439	-0,875	1,864	-29,541	5,798	-13,794	-4,219	-18,660	-179,220				36,73															
01:54:00.476	COM3_115200	2000-0-0 0:7:54.765	0,474	-0,871	1,877	-31,250	0,427	-11,353	-5,010	-18,517	-179,500				36,76															
01:54:00.476	COM3_115200	2000-0-0 0:7:54.785	0,386	-0,851	1,871	-29,358	-2,869	-11,414	-5,773	-18,490	-179,747				36,73															
01:54:00.492	COM8_115200	2000-0-0 0:5:47.600	0,382	0,837	1,696	27,405	4,944	13,672	11,069	-18,649	-108,331				34,05															
01:54:00.507	COM8_115200	2000-0-0 0:5:47.620	0,399	0,790	1,676	31,006	6,104	13,428	11,744	-18,501	-107,990				34,08															
01:54:00.512	COM3_115200	2000-0-0 0:7:54.805	0,386	-0,837	1,854	-27,771	-2,197	-14,099	-6,482	-18,479	179,962				36,82															
01:54:00.512	COM3_115200	2000-0-0 0:7:54.825	0,476	-0,814	1,813	-28,381	4,517	-19,043	-7,136	-18,424	179,583				36,73															
01:54:00.529	COM8_115200	2000-0-0 0:5:47.640	0,401	0,837	1,657	31,860	3,174	13,062	12,458	-18,375	-107,655				34,21															
01:54:00.545	COM3_115200	2000-0-0 0:7:54.845	0,505	-0,847	1,832	-30,518	7,019	-17,822	-7,828	-18,215	179,171				36,64															
01:54:00.545	COM8_115200	2000-0-0 0:5:47.660	0,433	0,804	1,684	31,921	2,686	14,954	13,162	-18,303	-107,314				34,02															
01:54:00.561	COM3_115200	2000-0-0 0:7:54.865	0,430	-0,830	1,839	-31,494	3,418	-16,357	-8,542	-18,083	178,792				36,76															
01:54:00.561	COM8_115200	2000-0-0 0:5:47.680	0,427	0,809	1,664	33,264	4,028	15,686	13,859	-18,226	-106,946				34,17															
01:54:00.577	COM3_115200	2000-0-0 0:7:54.885	0,444	-0,811	1,825	-33,691	-1,404	-17,273	-9,283	-18,045	178,418				36,60															
01:54:00.577	COM8_115200	2000-0-0 0:5:47.700	0,447	0,812	1,613	34,912	3,845	14,954	14,595	-18,138	-106,578				34,08															
01:54:00.613	COM3_115200	2000-0-0 0:7:54.905	0,487	-0,819	1,798	-33,386	-3,296	-19,836	-10,009	-18,105	178,017				36,60															
01:54:00.613	COM8_115200	2000-0-0 0:5:47.720	0,386	0,847	1,591	33,630	6,836	12,329	15,315	-18,023	-106,227				34,17															
01:54:00.629	COM8_115200	2000-0-0 0:5:47.740	0,462	0,816	1,623	30,518	6,165	14,465	15,991	-17,908	-105,870				34,21															
01:54:00.629	COM3_115200	2000-0-0 0:7:54.925	0,537	-0,823	1,782	-35,828	0,000	-18,921	-10,750	-18,127	177,599				36,64															
01:54:00.661	COM8_115200	2000-0-0 0:5:47.760	0,466	0,806	1,603	30,396	9,338	15,869	16,600	-17,776	-105,463				34,08															
01:54:00.661	COM3_115200	2000-0-0 0:7:54.945	0,457	-0,837	1,773	-36,621	-2,930	-14,832	-11,541	-18,138	177,248				36,67															
01:54:00.661	COM3_115200	2000-0-0 0:7:54.965	0,459	-0,818	1,781	-36,194	-6,042	-14,771	-12,338	-18,232	176,946				36,60															
01:54:00.677	COM8_115200	2000-0-0 0:5:47.780	0,499	0,818	1,564	31,738	10,498	14,771	17,238	-17,595	-105,040				34,17															
01:54:00.692	COM3_115200	2000-0-0 0:7:54.985	0,512	-0,783	1,766	-34,058	-8,667	-17,090	-13,079	-18,402	176,633				36,76															
01:54:00.692	COM8_115200	2000-0-0 0:5:47.800	0,434	0,806	1,593	29,419	5,127	13,489	17,858	-17,485	-104,678				34,08															
01:54:00.709	COM3_115200	2000-0-0 0:7:55.005	0,484	-0,822	1,724	-34,363	-0,671	-16,968	-13,793	-18,479	176,270				36,64															
01:54:00.713	COM8_115200	2000-0-0 0:5:47.820	0,456	0,773	1,619	30,518	8,667	13,672	18,463	-17,386	-104,321				34,02															
01:54:00.729	COM3_115200	2000-0-0 0:7:55.025	0,543	-0,784	1,746	-32,776	6,470	-18,799	-14,469	-18,457	175,875				36,73															
01:54:00.729	COM8_115200	2000-0-0 0:5:47.840	0,516	0,729	1,596	31,555	9,827	13,733	19,067	-17,249	-103,942				34,08															
01:54:00.746	COM3_115200	2000-0-0 0:7:55.045	0,573	-0,798	1,734	-33,081	27,100	-19,897	-15,079	-18,111	175,347				36,67															
01:54:00.746	COM8_115200	2000-0-0 0:5:47.860	0,493	0,785	1,526	32,654	9,644	11,230	19,715	-17,089	-103,574				34,11															
01:54:00.761	COM3_115200	2000-0-0 0:7:55.065	0,537	-0,819	1,729	-32,166	22,156	-20,447	-15,672	-17,693	174,765				36,67															
01:54:00.777	COM8_115200	2000-0-0 0:5:47.880	0,446	0,761	1,544	29,663	9,705	10,132	20,325	-16,968	-103,271				34,24															
01:54:00.793	COM3_115200	2000-0-0 0:7:55.085	0,514	-0,809	1,741	-31,799	16,541	-20,203	-16,260	-17,419	174,232				36,67															
01:54:00.793	COM8_115200	2000-0-0 0:5:47.900	0,452	0,774	1,520	26,428	13,489	10,742	20,858	-16,776	-102,931				34,17															
01:54:00.808	COM8_115200	2000-0-0 0:5:47.920	0,487	0,699	1,518	26,184	16,541	12,817	21,341	-16,556	-102,541				34,21															
01:54:00.813	COM3_115200	2000-0-0 0:7:55.105	0,560	-0,784	1,726	-32,471	16,968	-20,020	-16,848	-17,188	173,716				36,73															
01:54:00.813	COM3_115200	2000-0-0 0:7:55.125	0,549	-0,767	1,716	-31,494	12,939	-17,700	-17,446	-16,974	173,232				36,73															
01:54:00.829	COM8_115200	2000-0-0 0:5:47.940	0,468	0,743	1,536	26,672	17,761	12,024	21,819	-16,287	-102,123				34,17															
01:54:00.845	COM3_115200	2000-0-0 0:7:55.145	0,541	-0,751	1,722	-31,616	5,249	-18,494	-18,045	-16,908	172,798				36,76															
01:54:00.845	COM8_115200	2000-0-0 0:5:47.960	0,449	0,723	1,557	26,978	17,578	11,475	22,302	-16,040	-101,728				34,14															
01:54:00.861	COM3_115200	2000-0-0 0:7:55.165	0,520	-0,737	1,700	-32,349	-0,305	-18,188	-18,644	-16,979	172,397				36,70															
01:54:00.861	COM8_115200	2000-0-0 0:5:47.980	0,489	0,730	1,554	27,466	17,822	11,414	22,786	-15,782	-101,321				34,08															
01:54:00.877	COM3_115200	2000-0-0 0:7:55.185	0,543	-0,729	1,688	-33,569	-3,601	-17,090	-19,276	-17,106	172,040				36,67															
01:54:00.893	COM8_115200	2000-0-0 0:5:48.000	0,507	0,707	1,557	28,992	16,235	12,329	23,286	-15,557	-100,915				34,14															
01:54:00.914	COM3_115200	2000-0-0 0:7:55.205	0,546	-0,704	1,696	-34,180	-8,667	-16,846	-19,918	-17,331	171,733				36,76															
01:54:00.914	COM8_115200	2000-0-0 0:5:48.020	0,474	0,697	1,563	31,128	16,052	13,062	23,807	-15,364	-100,492				34,02															
01:54:00.930	COM8_115200	2000-0-0 0:5:48.040	0,497	0,694	1,566	33,386	14,282	12,756	24,379	-15,194	-100,080				33,99															
01:54:00.930	COM3_115200	2000-0-0 0:7:55.225	0,565	-0,737	1,654	-35,278	-8,179	-17,578	-20,572	-17,595	171,431				36,76															
01:54:00.946	COM3_115200	2000-0-0 0:7:55.245	0,549	-0,739	1,653	-35,156	-11,597	-16,418	-21,237	-17,880	171,156				36,79															
01:54:00.946	COM8_115200	2000-0-0 0:5:48.060	0,518	0,690	1,537	36,194	13,123	12,878	24,994	-15,051	-99,673				34,11															
01:54:00.962	COM3_115200	2000-0-0 0:7:55.265	0,596	-0,710	1,678	-35,278	-15,869	-18,250	-21,896	-18,265	170,909				36,76															
01:54:00.978	COM8_115200	2000-0-0 0:5:48.080	0,518	0,708	1,538	36,133	5,371	14,771	25,626	-15,024	-99,300				34,08															
01:54:00.978	COM3_115200	2000-0-0 0:7:55.285	0,585	-0,723	1,638	-36,499	-13,855	-17,700	-22,560	-18,655	170,651				36,73															
01:54:01.000	COM8_115200	2000-0-0 0:5:48.100	0,521	0,703	1,524	37,659	0,671	16,541	26,263	-15,134	-98,937				34,08															
01:54:01.040	COM8_115200	2000-0-0 0:5:48.120	0,532	0,694	1,510	39,246	-4,028	17,090	26,938	-15,337	-98,608				33,99															
01:54:01.040	COM8_115200	2000-0-0 0:5:48.140	0,511	0,701	1,522	39,246	-7,935	16,541	27,625	-15,617	-98,328				34,14															
01:54:01.040	COM3_115200	2000-0-0 0:7:55.305	0,583	-0,731	1,596	-37,292	-13,123	-16,785	-23,242	-19,001	170,403				36,67															
01:54:01.040	COM3_115200	2000-0-0 0:7:55.325	0,568	-0,727	1,605	-36,499	-14,893	-16,724	-23,923	-19,369	170,189				36,70															
01:54:01.056	COM8_115200	2000-0-0 0:5:48.160	0,536	0,689	1,521	40,405	-10,376	17,212	28,328	-15,958	-98,069				34,24															
01:54:01.056	COM3_115200	2000-0-0 0:7:55.345	0,549	-0,705	1,600	-35,950	-10,193	-18,982	-24,554	-19,715	169,920				36,70															
01:54:01.056	COM3_115200	2000-0-0 0:7:55.365	0,638	-0,655	1,603	-35,950	-8,667	-20,020	-25,159	-20,012	169,607				36,73															
01:54:01.072	COM8_115200	2000-0-0 0:5:48.180	0,541	0,673	1,440	42,725	-7,690	14,282	29,070	-16,271	-97,839				34,14															
01:54:01.103	COM8_115200	2000-0-0 0:5:48.200	0,562	0,716	1,445	40,771	-9,949	14,160	29,800	-16,578	-97,646				34,11															
01:54:01.103	COM8_115200	2000-0-0 0:5:48.220	0,525	0,705	1,440	36,560	-10,803	16,479	30,454	-16,930	-97,438				34,14															
01:54:01.114	COM3_115200	2000-0-0 0:7:55.385	0,589	-0,676	1,582	-38,513	-9,705	-17,273	-25,790	-20,297	169,310				36,67															
01:54:01.114	COM3_115200	2000-0-0 0:7:55.405	0,586	-0,653	1,604	-42,725	-10,864	-13,428	-26,516	-20,583	169,102				36,92															
01:54:01.114	COM3_115200	2000-0-0 0:7:55.425	0,564	-0,609	1,580	-45,044	-13,000	-12,146	-27,312	-20,891	168,964				36,70															
01:54:01.131	COM8_115200	2000-0-0 0:5:48.240	0,542	0,629	1,447	36,682	-3,662	17,273	31,047	-17,216	-97,163				34,08															
01:54:01.131	COM3_115200	2000-0-0 0:7:55.445	0,629	-0,583	1,560	-46,875	-13,062	-12,329	-28,141	-21,204	168,843				36,64															
01:54:01.148	COM8_115200	2000-0-0 0:5:48.260	0,521	0,585	1,452	35,950	0,244	18,677	31,597	-17,441	-96,817				34,21															
01:54:01.163	COM3_115200	2000-0-0 0:7:55.465	0,559	-0,602	1,525	-48,096	-11,963	-11,475	-28,976	-21,489	168,717				36,67															
01:54:01.179	COM8_115200	2000-0-0 0:5:48.280	0,543	0,572	1,456	36,072	2,563	20,813	32,113	-17,628	-96,394				34,08															
01:54:01.179	COM3_115200	2000-0-0 0:7:55.485	0,555	-0,571	1,556	-49,072	-10,681	-11,902	-29,828	-21,769	168,602				36,76															
01:54:01.195	COM8_115200	2000-0-0 0:5:48.300	0,539	0,551	1,451	35,278	2,747	22,400	32,596	-17,814	-95,938				34,11															
01:54:01.196	COM3_115200	2000-0-0 0:7:55.505	0,586	-0,549	1,544	-49,377	-11,536	-13,489	-30,668	-22,055	168,464				36,73															
01:54:01.214	COM8_115200	2000-0-0 0:5:48.320	0,517	0,508	1,449	35,645	3,723	24,597	33,047	-18,034	-95,438				34,17															
01:54:01.230	COM3_115200	2000-0-0 0:7:55.525	0,585	-0,577	1,477	-49,805	-6,348	-14,954	-31,481	-22,302	168,261				36,73															
01:54:01.230	COM8_115200	2000-0-0 0:5:48.340	0,545	0,473	1,452	37,476	4,944	26,428	33,486	-18,254	-94,894				34,11															
01:54:01.246	COM3_115200	2000-0-0 0:7:55.545	0,549	-0,579	1,473	-49,561	-9,705	-15,686	-32,272	-22,566	168,036				36,82															
01:54:01.246	COM8_115200	2000-0-0 0:5:48.360	0,564	0,457	1,434	39,551	7,141	27,344	33,937	-18,457	-94,312				34,14															
01:54:01.262	COM3_115200	2000-0-0 0:7:55.565	0,647	-0,547	1,487	-49,011	-11,414	-18,005	-33,052	-22,896	167,838				36,64															
01:54:01.262	COM8_115200	2000-0-0 0:5:48.380	0,588	0,517	1,405	40,039	6,409	27,344	34,409	-18,644	-93,719				34,24															
01:54:01.278	COM3_115200	2000-0-0 0:7:55.585	0,598	-0,579	1,442	-49,316	-7,690	-18,372	-33,794	-23,209	167,585				36,67															
01:54:01.278	COM8_115200	2000-0-0 0:5:48.400	0,587	0,503	1,403	39,551	7,385	27,832	34,860	-18,853	-93,120				34,11															
01:54:01.294	COM3_115200	2000-0-0 0:7:55.605	0,549	-0,556	1,430	-50,903	-6,775	-17,578	-34,552	-23,489	167,322				36,82															
01:54:01.331	COM8_115200	2000-0-0 0:5:48.420	0,598	0,471	1,381	41,687	8,789	28,442	35,305	-19,061	-92,494				34,14															
01:54:01.331	COM8_115200	2000-0-0 0:5:48.440	0,634	0,489	1,384	41,260	5,920	28,809	35,766	-19,292	-91,884				34,17															
01:54:01.331	COM3_115200	2000-0-0 0:7:55.625	0,650	-0,533	1,438	-50,476	-10,742	-18,188	-35,316	-23,807	167,097				36,82															
01:54:01.346	COM8_115200	2000-0-0 0:5:48.460	0,653	0,500	1,377	41,321	3,723	28,625	36,227	-19,561	-91,296				34,14															
01:54:01.362	COM3_115200	2000-0-0 0:7:55.645	0,644	-0,556	1,362	-48,462	-11,292	-17,822	-36,052	-24,148	166,877				36,70															
01:54:01.363	COM3_115200	2000-0-0 0:7:55.665	0,595	-0,550	1,356	-46,692	-10,742	-18,982	-36,744	-24,516	166,674				36,70															
01:54:01.395	COM8_115200	2000-0-0 0:5:48.480	0,620	0,463	1,354	42,664	3,052	26,611	36,700	-19,858	-90,753				34,14															
01:54:01.395	COM8_115200	2000-0-0 0:5:48.500	0,634	0,425	1,366	42,786	1,160	26,123	37,172	-20,187	-90,247				34,21															
01:54:01.411	COM8_115200	2000-0-0 0:5:48.520	0,628	0,445	1,366	42,542	-2,136	26,794	37,667	-20,533	-89,769				34,17															
01:54:01.414	COM3_115200	2000-0-0 0:7:55.685	0,636	-0,531	1,394	-44,250	-12,817	-19,897	-37,375	-24,901	166,459				36,82															
01:54:01.414	COM3_115200	2000-0-0 0:7:55.705	0,617	-0,505	1,388	-43,640	-3,357	-21,545	-37,936	-25,225	166,157				36,76															
01:54:01.431	COM8_115200	2000-0-0 0:5:48.540	0,598	0,392	1,358	42,114	-2,930	26,794	38,145	-20,929	-89,319				34,14															
01:54:01.431	COM3_115200	2000-0-0 0:7:55.725	0,597	-0,472	1,388	-43,823	2,869	-22,095	-38,430	-25,461	165,729				36,70															
01:54:01.447	COM3_115200	2000-0-0 0:7:55.745	0,589	-0,444	1,374	-42,542	-4,333	-23,193	-38,925	-25,768	165,366				36,67															
01:54:01.447	COM8_115200	2000-0-0 0:5:48.560	0,599	0,362	1,373	43,396	1,404	27,039	38,595	-21,302	-88,830				34,21															
01:54:01.463	COM3_115200	2000-0-0 0:7:55.765	0,609	-0,431	1,385	-41,443	-9,399	-23,132	-39,408	-26,164	165,064				36,70															
01:54:01.480	COM8_115200	2000-0-0 0:5:48.580	0,629	0,310	1,363	45,166	3,723	28,015	39,045	-21,627	-88,286				34,02															
01:54:01.480	COM3_115200	2000-0-0 0:7:55.785	0,595	-0,421	1,397	-41,321	-6,348	-24,902	-39,847	-26,543	164,707				36,67															
01:54:01.496	COM8_115200	2000-0-0 0:5:48.600	0,656	0,341	1,334	46,326	3,235	28,442	39,507	-21,956	-87,726				34,11															
01:54:01.512	COM8_115200	2000-0-0 0:5:48.620	0,630	0,348	1,325	46,204	6,531	26,611	39,963	-22,242	-87,166				34,21															
01:54:01.512	COM3_115200	2000-0-0 0:7:55.805	0,632	-0,400	1,392	-42,847	-2,014	-26,733	-40,259	-26,889	164,268				36,64															
01:54:01.515	COM3_115200	2000-0-0 0:7:55.825	0,648	-0,378	1,342	-43,945	-2,075	-27,771	-40,660	-27,230	163,801				36,73															
01:54:01.530	COM8_115200	2000-0-0 0:5:48.640	0,669	0,324	1,330	44,434	7,629	28,076	40,358	-22,511	-86,572				34,08															
01:54:01.530	COM3_115200	2000-0-0 0:7:55.845	0,563	-0,397	1,298	-42,236	-7,568	-25,879	-41,072	-27,598	163,378				36,79															
01:54:01.547	COM8_115200	2000-0-0 0:5:48.660	0,711	0,310	1,300	45,654	6,958	27,954	40,759	-22,780	-85,963				34,08															
01:54:01.563	COM3_115200	2000-0-0 0:7:55.865	0,662	-0,362	1,355	-40,649	-9,094	-28,320	-41,451	-28,043	162,999				36,64															
01:54:01.563	COM8_115200	2000-0-0 0:5:48.680	0,688	0,301	1,310	44,922	6,531	26,550	41,155	-23,066	-85,391				34,02															
01:54:01.579	COM3_115200	2000-0-0 0:7:55.885	0,615	-0,351	1,296	-40,466	-3,174	-29,358	-41,765	-28,471	162,548				36,76															
01:54:01.595	COM8_115200	2000-0-0 0:5:48.700	0,664	0,272	1,331	45,654	7,080	27,100	41,534	-23,351	-84,814				34,17															
01:54:01.595	COM3_115200	2000-0-0 0:7:55.905	0,605	-0,331	1,301	-40,649	-4,456	-29,663	-42,056	-28,856	162,048				36,76															
01:54:01.610	COM8_115200	2000-0-0 0:5:48.720	0,699	0,242	1,301	46,509	5,676	26,306	41,929	-23,637	-84,249				34,24															
01:54:01.614	COM3_115200	2000-0-0 0:7:55.925	0,609	-0,314	1,306	-39,001	-11,902	-31,799	-42,336	-29,355	161,598				36,73															
01:54:01.631	COM8_115200	2000-0-0 0:5:48.740	0,667	0,225	1,296	44,373	7,385	25,024	42,297	-23,917	-83,716				34,08															
01:54:01.647	COM3_115200	2000-0-0 0:7:55.945	0,672	-0,291	1,295	-40,649	-17,944	-32,837	-42,649	-29,960	161,230				36,67															
01:54:01.647	COM8_115200	2000-0-0 0:5:48.760	0,671	0,212	1,292	44,800	11,902	26,245	42,605	-24,137	-83,101				34,17															
01:54:01.663	COM8_115200	2000-0-0 0:5:48.780	0,736	0,180	1,273	44,678	7,874	27,100	42,907	-24,401	-82,507				34,08															
01:54:01.663	COM3_115200	2000-0-0 0:7:55.965	0,649	-0,290	1,243	-38,330	-26,306	-31,616	-43,006	-30,674	160,999				36,82															
01:54:01.679	COM3_115200	2000-0-0 0:7:55.985	0,673	-0,268	1,277	-36,011	-24,292	-31,311	-43,363	-31,476	160,862				36,73															
01:54:01.695	COM8_115200	2000-0-0 0:5:48.800	0,732	0,195	1,271	42,542	5,615	25,330	43,193	-24,703	-81,964				34,11															
01:54:01.695	COM3_115200	2000-0-0 0:7:56.005	0,593	-0,259	1,271	-37,537	-16,907	-31,311	-43,616	-32,113	160,571				36,76															
01:54:01.711	COM8_115200	2000-0-0 0:5:48.820	0,680	0,183	1,278	41,565	6,348	23,926	43,445	-24,983	-81,436				34,08															
01:54:01.731	COM3_115200	2000-0-0 0:7:56.025	0,598	-0,231	1,216	-35,889	-21,240	-31,677	-43,846	-32,734	160,252				36,67															
01:54:01.747	COM8_115200	2000-0-0 0:5:48.840	0,742	0,160	1,277	40,649	4,333	23,499	43,693	-25,274	-80,953				34,14															
01:54:01.747	COM8_115200	2000-0-0 0:5:48.860	0,688	0,148	1,295	38,879	3,357	22,461	43,901	-25,571	-80,502				34,17															
01:54:01.778	COM8_115200	2000-0-0 0:5:48.880	0,698	0,120	1,307	39,001	2,991	24,719	44,083	-25,900	-80,024				34,14															
01:54:01.778	COM8_115200	2000-0-0 0:5:48.900	0,695	0,097	1,304	37,415	1,404	25,879	44,231	-26,268	-79,557				34,14															
01:54:01.794	COM3_115200	2000-0-0 0:7:56.045	0,638	-0,198	1,220	-34,363	-27,344	-32,532	-44,094	-33,475	160,038				36,70															
01:54:01.794	COM3_115200	2000-0-0 0:7:56.065	0,648	-0,180	1,244	-34,119	-20,569	-32,715	-44,291	-34,200	159,791				36,70															
01:54:01.794	COM3_115200	2000-0-0 0:7:56.085	0,595	-0,160	1,240	-35,400	-13,062	-30,457	-44,401	-34,772	159,390				36,70															
01:54:01.794	COM3_115200	2000-0-0 0:7:56.105	0,629	-0,149	1,202	-34,729	-14,526	-30,640	-44,506	-35,310	158,967				36,64															
01:54:01.811	COM8_115200	2000-0-0 0:5:48.920	0,713	0,086	1,302	37,109	0,854	27,527	44,346	-26,658	-79,069				34,21															
01:54:01.815	COM3_115200	2000-0-0 0:7:56.125	0,610	-0,140	1,229	-35,278	-8,911	-31,738	-44,583	-35,837	158,533				36,76															
01:54:01.831	COM8_115200	2000-0-0 0:5:48.940	0,692	0,066	1,308	35,278	0,000	28,748	44,418	-27,070	-78,574				34,11															
01:54:01.847	COM8_115200	2000-0-0 0:5:48.960	0,667	0,051	1,314	34,424	2,075	32,104	44,418	-27,532	-78,019				34,08															
01:54:01.847	COM3_115200	2000-0-0 0:7:56.145	0,576	-0,122	1,227	-35,889	-0,916	-31,982	-44,555	-36,244	157,912				36,79															
01:54:01.863	COM8_115200	2000-0-0 0:5:48.980	0,699	0,041	1,326	33,997	1,343	34,180	44,379	-27,993	-77,404				34,14															
01:54:01.878	COM3_115200	2000-0-0 0:7:56.165	0,608	-0,110	1,207	-36,865	-4,517	-30,212	-44,522	-36,617	157,269				36,64															
01:54:01.878	COM3_115200	2000-0-0 0:7:56.185	0,648	-0,096	1,208	-36,682	-10,010	-32,471	-44,550	-37,106	156,747				36,64															
01:54:01.878	COM8_115200	2000-0-0 0:5:49.000	0,717	0,053	1,299	33,508	2,380	32,837	44,319	-28,433	-76,772				34,14															
01:54:01.894	COM3_115200	2000-0-0 0:7:56.205	0,588	-0,092	1,211	-37,964	-9,827	-31,372	-44,577	-37,568	156,215				36,76															
01:54:01.910	COM8_115200	2000-0-0 0:5:49.020	0,681	0,002	1,284	32,959	4,211	31,799	44,231	-28,839	-76,130				34,14															
01:54:01.915	COM3_115200	2000-0-0 0:7:56.225	0,642	-0,076	1,181	-37,903	-14,282	-29,663	-44,637	-38,057	155,731				36,60															
01:54:01.932	COM8_115200	2000-0-0 0:5:49.040	0,704	-0,021	1,326	33,691	2,197	33,813	44,116	-29,273	-75,471				34,05															
01:54:01.948	COM8_115200	2000-0-0 0:5:49.060	0,716	-0,023	1,290	33,325	0,366	32,715	44,011	-29,718	-74,833				34,17															
01:54:01.948	COM3_115200	2000-0-0 0:7:56.245	0,615	-0,053	1,197	-36,804	-16,235	-28,870	-44,758	-38,611	155,391				36,73															
01:54:01.964	COM3_115200	2000-0-0 0:7:56.265	0,608	-0,029	1,204	-36,133	-8,667	-28,625	-44,775	-39,045	154,935				36,86															
01:54:01.964	COM8_115200	2000-0-0 0:5:49.080	0,701	-0,043	1,279	32,593	0,244	31,616	43,901	-30,157	-74,218				34,24															
01:54:01.981	COM3_115200	2000-0-0 0:7:56.285	0,649	-0,017	1,190	-36,438	-6,470	-28,137	-44,725	-39,430	154,385				36,64															
01:54:01.981	COM8_115200	2000-0-0 0:5:49.100	0,710	-0,066	1,294	30,151	0,549	31,677	43,753	-30,602	-73,619				34,17															
01:54:01.997	COM3_115200	2000-0-0 0:7:56.305	0,593	0,007	1,184	-36,743	-10,254	-26,367	-44,714	-39,825	153,902				36,64															
01:54:02.015	COM8_115200	2000-0-0 0:5:49.120	0,708	-0,092	1,278	31,189	2,441	31,677	43,561	-30,992	-72,988				34,17															
01:54:02.027	COM3_115200	2000-0-0 0:7:56.325	0,568	0,025	1,197	-36,194	-6,470	-25,330	-44,665	-40,177	153,397				36,60															
01:54:02.037	COM8_115200	2000-0-0 0:5:49.140	0,717	-0,093	1,267	31,372	-1,282	31,494	43,385	-31,415	-72,356				34,14															
01:54:02.049	COM3_115200	2000-0-0 0:7:56.345	0,594	0,051	1,215	-37,170	-7,080	-25,146	-44,604	-40,501	152,864				36,67															
01:54:02.052	COM8_115200	2000-0-0 0:5:49.160	0,712	-0,109	1,275	29,114	-0,549	30,518	43,182	-31,838	-71,768				34,24															
01:54:02.066	COM3_115200	2000-0-0 0:7:56.365	0,607	0,062	1,176	-36,865	-13,550	-22,400	-44,637	-40,869	152,485				36,64															
01:54:02.073	COM8_115200	2000-0-0 0:5:49.180	0,711	-0,120	1,287	28,015	4,150	29,297	42,913	-32,190	-71,131				34,14															
01:54:02.089	COM3_115200	2000-0-0 0:7:56.385	0,586	0,089	1,190	-36,011	-11,536	-20,752	-44,670	-41,226	152,144				36,67															
01:54:02.089	COM8_115200	2000-0-0 0:5:49.200	0,764	-0,145	1,288	27,649	0,244	27,710	42,638	-32,531	-70,516				34,17															
01:54:02.115	COM3_115200	2000-0-0 0:7:56.405	0,588	0,070	1,167	-34,058	-3,113	-20,325	-44,594	-41,451	151,688				36,60															
01:54:02.115	COM3_115200	2000-0-0 0:7:56.425	0,634	0,102	1,152	-32,593	0,000	-20,935	-44,401	-41,616	151,122				36,70															
01:54:02.149	COM8_115200	2000-0-0 0:5:49.220	0,751	-0,137	1,291	26,794	4,028	26,794	42,341	-32,855	-69,906				34,08															
01:54:02.149	COM8_115200	2000-0-0 0:5:49.240	0,747	-0,161	1,287	24,597	3,906	24,963	42,017	-33,118	-69,302				34,08															
01:54:02.149	COM3_115200	2000-0-0 0:7:56.445	0,560	0,110	1,164	-31,067	-3,662	-20,508	-44,209	-41,814	150,601				36,70															
01:54:02.165	COM3_115200	2000-0-0 0:7:56.465	0,528	0,121	1,175	-29,663	-1,465	-19,653	-43,967	-41,968	150,068				36,82															
01:54:02.180	COM8_115200	2000-0-0 0:5:49.260	0,690	-0,174	1,297	23,743	4,333	24,597	41,660	-33,365	-68,708				34,08															
01:54:02.180	COM8_115200	2000-0-0 0:5:49.280	0,710	-0,178	1,319	23,682	2,441	24,719	41,298	-33,613	-68,132				34,11															
01:54:02.180	COM3_115200	2000-0-0 0:7:56.485	0,598	0,152	1,189	-28,625	-0,854	-20,996	-43,671	-42,133	149,518				36,73															
01:54:02.180	COM8_115200	2000-0-0 0:5:49.300	0,706	-0,203	1,333	24,536	1,160	24,658	40,963	-33,887	-67,577				34,17															
01:54:02.197	COM3_115200	2000-0-0 0:7:56.505	0,582	0,158	1,157	-27,527	-2,319	-21,790	-43,319	-42,303	148,914				36,76															
01:54:02.213	COM8_115200	2000-0-0 0:5:49.320	0,698	-0,215	1,327	24,109	1,770	24,780	40,622	-34,156	-67,022				34,11															
01:54:02.215	COM3_115200	2000-0-0 0:7:56.525	0,538	0,160	1,199	-26,917	-5,554	-22,400	-42,984	-42,528	148,365				36,60															
01:54:02.231	COM8_115200	2000-0-0 0:5:49.340	0,638	-0,213	1,331	25,024	3,906	25,818	40,248	-34,404	-66,418				34,14															
01:54:02.231	COM3_115200	2000-0-0 0:7:56.545	0,568	0,142	1,232	-27,161	-7,324	-23,621	-42,665	-42,792	147,849				36,73															
01:54:02.247	COM8_115200	2000-0-0 0:5:49.360	0,625	-0,237	1,317	24,658	2,136	25,940	39,875	-34,634	-65,786				34,11															
01:54:02.264	COM3_115200	2000-0-0 0:7:56.565	0,547	0,176	1,222	-30,762	-1,953	-23,132	-42,336	-43,000	147,266				36,76															
01:54:02.280	COM8_115200	2000-0-0 0:5:49.380	0,661	-0,242	1,327	24,475	1,221	27,100	39,496	-34,898	-65,171				34,14															
01:54:02.283	COM3_115200	2000-0-0 0:7:56.585	0,584	0,206	1,242	-33,447	-5,371	-21,667	-42,083	-43,204	146,695				36,70															
01:54:02.283	COM8_115200	2000-0-0 0:5:49.400	0,667	-0,255	1,350	24,231	2,747	27,954	39,073	-35,156	-64,506				34,11															
01:54:02.299	COM3_115200	2000-0-0 0:7:56.605	0,557	0,195	1,212	-35,522	-5,005	-22,583	-41,863	-43,401	146,124				36,70															
01:54:02.299	COM8_115200	2000-0-0 0:5:49.420	0,682	-0,268	1,371	25,574	4,456	28,198	38,639	-35,370	-63,792				34,17															
01:54:02.315	COM3_115200	2000-0-0 0:7:56.625	0,564	0,213	1,174	-34,363	-5,615	-24,048	-41,633	-43,627	145,536				36,67															
01:54:02.331	COM8_115200	2000-0-0 0:5:49.440	0,667	-0,290	1,374	26,367	1,587	27,466	38,232	-35,601	-63,100				34,24															
01:54:02.347	COM3_115200	2000-0-0 0:7:56.645	0,570	0,207	1,173	-33,264	2,380	-25,269	-41,309	-43,808	144,849				36,70															
01:54:02.347	COM8_115200	2000-0-0 0:5:49.460	0,675	-0,301	1,365	28,687	0,366	26,733	37,881	-35,832	-62,446				34,11															
01:54:02.396	COM8_115200	2000-0-0 0:5:49.480	0,658	-0,309	1,365	29,297	-1,160	28,564	37,551	-36,101	-61,793				34,02															
01:54:02.396	COM8_115200	2000-0-0 0:5:49.500	0,688	-0,323	1,335	30,151	-0,427	29,968	37,200	-36,387	-61,100				34,14															
01:54:02.396	COM3_115200	2000-0-0 0:7:56.665	0,589	0,251	1,192	-33,142	2,991	-25,024	-40,902	-43,896	144,069				36,73															
01:54:02.396	COM3_115200	2000-0-0 0:7:56.685	0,604	0,276	1,213	-33,508	-1,465	-27,405	-40,501	-44,066	143,289				36,70															
01:54:02.396	COM3_115200	2000-0-0 0:7:56.705	0,592	0,263	1,227	-32,776	1,892	-26,001	-40,084	-44,247	142,526				36,73															
01:54:02.412	COM8_115200	2000-0-0 0:5:49.520	0,741	-0,352	1,281	28,931	1,221	27,649	36,843	-36,623	-60,397				34,11															
01:54:02.415	COM3_115200	2000-0-0 0:7:56.725	0,529	0,297	1,230	-33,569	6,592	-25,085	-39,628	-44,291	141,696				36,70															
01:54:02.431	COM8_115200	2000-0-0 0:5:49.540	0,699	-0,365	1,321	25,574	1,892	30,090	36,420	-36,854	-59,678				34,14															
01:54:02.431	COM3_115200	2000-0-0 0:7:56.745	0,499	0,300	1,210	-32,959	1,709	-25,330	-39,177	-44,390	140,867				36,70															
01:54:02.449	COM8_115200	2000-0-0 0:5:49.560	0,708	-0,355	1,332	21,790	1,404	26,917	35,920	-37,062	-58,964				34,08															
01:54:02.497	COM8_115200	2000-0-0 0:5:49.580	0,654	-0,377	1,368	18,799	-5,371	28,809	35,370	-37,343	-58,299				34,14															
01:54:02.497	COM8_115200	2000-0-0 0:5:49.600	0,645	-0,408	1,381	20,508	-7,874	27,893	34,865	-37,689	-57,695				34,17															
01:54:02.497	COM3_115200	2000-0-0 0:7:56.765	0,502	0,353	1,225	-32,043	-9,705	-25,879	-38,809	-44,599	140,213				36,76															
01:54:02.513	COM3_115200	2000-0-0 0:7:56.785	0,473	0,365	1,233	-31,311	-14,771	-28,870	-38,458	-44,951	139,625				36,70															
01:54:02.516	COM8_115200	2000-0-0 0:5:49.620	0,697	-0,392	1,347	22,400	-7,507	28,809	34,398	-38,018	-57,101				34,14															
01:54:02.516	COM3_115200	2000-0-0 0:7:56.805	0,552	0,369	1,253	-30,701	-17,883	-28,931	-38,112	-45,368	139,043				36,67															
01:54:02.516	COM3_115200	2000-0-0 0:7:56.825	0,521	0,363	1,246	-33,203	-21,362	-33,813	-37,749	-45,857	138,406				36,67															
01:54:02.532	COM8_115200	2000-0-0 0:5:49.640	0,624	-0,409	1,299	21,118	-3,479	28,137	33,893	-38,298	-56,437				34,08															
01:54:02.532	COM3_115200	2000-0-0 0:7:56.845	0,523	0,347	1,240	-31,555	-21,606	-33,142	-37,419	-46,384	137,813				36,79															
01:54:02.548	COM8_115200	2000-0-0 0:5:49.660	0,628	-0,407	1,324	19,775	0,427	28,625	33,294	-38,529	-55,684				34,24															
01:54:02.564	COM8_115200	2000-0-0 0:5:49.680	0,604	-0,422	1,349	19,592	-1,526	28,137	32,690	-38,743	-54,954				34,21															
01:54:02.580	COM3_115200	2000-0-0 0:7:56.865	0,429	0,382	1,215	-33,813	-23,010	-33,508	-37,024	-46,884	137,137				36,86															
01:54:02.580	COM3_115200	2000-0-0 0:7:56.885	0,487	0,372	1,250	-33,508	-19,348	-37,292	-36,573	-47,401	136,373				36,70															
01:54:02.580	COM8_115200	2000-0-0 0:5:49.700	0,594	-0,438	1,385	22,888	2,563	29,663	32,124	-38,903	-54,196				34,17															
01:54:02.595	COM3_115200	2000-0-0 0:7:56.905	0,501	0,405	1,204	-34,790	-25,879	-40,833	-36,118	-48,005	135,577				36,70															
01:54:02.611	COM8_115200	2000-0-0 0:5:49.720	0,567	-0,470	1,396	23,315	1,343	27,222	31,575	-39,023	-53,421				33,99															
01:54:02.616	COM3_115200	2000-0-0 0:7:56.925	0,506	0,448	1,218	-33,691	-16,479	-37,048	-35,612	-48,543	134,714				36,70															
01:54:02.632	COM8_115200	2000-0-0 0:5:49.740	0,575	-0,456	1,440	25,452	1,099	28,564	31,042	-39,139	-52,630				34,08															
01:54:02.632	COM3_115200	2000-0-0 0:7:56.945	0,443	0,421	1,194	-32,532	-7,385	-36,682	-34,948	-48,906	133,693				36,73															
01:54:02.648	COM8_115200	2000-0-0 0:5:49.760	0,533	-0,470	1,444	28,503	3,113	28,076	30,558	-39,227	-51,828				34,17															
01:54:02.648	COM3_115200	2000-0-0 0:7:56.965	0,496	0,451	1,199	-29,236	-2,502	-37,964	-34,140	-49,103	132,539				36,73															
01:54:02.664	COM8_115200	2000-0-0 0:5:49.780	0,560	-0,509	1,470	30,884	-0,244	29,358	30,119	-39,315	-51,026				34,14															
01:54:02.680	COM3_115200	2000-0-0 0:7:56.985	0,551	0,476	1,212	-26,184	-4,578	-39,429	-33,201	-49,323	131,298				36,70															
01:54:02.680	COM8_115200	2000-0-0 0:5:49.800	0,539	-0,529	1,471	32,043	-6,836	29,297	29,751	-39,512	-50,273				34,21															
01:54:02.696	COM3_115200	2000-0-0 0:7:57.005	0,521	0,460	1,208	-21,118	6,531	-38,208	-32,113	-49,438	129,979				36,67															
01:54:02.712	COM8_115200	2000-0-0 0:5:49.820	0,529	-0,545	1,452	32,959	-6,348	29,602	29,405	-39,743	-49,543				34,14															
01:54:02.716	COM3_115200	2000-0-0 0:7:57.025	0,487	0,475	1,208	-17,761	19,470	-37,415	-30,806	-49,285	128,474				36,70															
01:54:02.716	COM8_115200	2000-0-0 0:5:49.840	0,553	-0,550	1,430	32,288	-6,470	29,480	29,042	-39,957	-48,785				34,05															
01:54:02.748	COM8_115200	2000-0-0 0:5:49.860	0,580	-0,559	1,428	30,945	-10,620	29,724	28,663	-40,204	-48,054				34,11															
01:54:02.748	COM3_115200	2000-0-0 0:7:57.045	0,513	0,508	1,239	-13,916	26,367	-36,316	-29,366	-48,961	126,898				36,73															
01:54:02.764	COM8_115200	2000-0-0 0:5:49.880	0,611	-0,536	1,403	29,114	-13,733	30,151	28,262	-40,523	-47,335				34,14															
01:54:02.764	COM3_115200	2000-0-0 0:7:57.065	0,442	0,495	1,234	-7,996	31,860	-38,025	-27,790	-48,505	125,250				36,64															
01:54:02.780	COM3_115200	2000-0-0 0:7:57.085	0,465	0,530	1,287	-6,531	30,334	-40,527	-26,208	-47,999	123,602				36,70															
01:54:02.780	COM8_115200	2000-0-0 0:5:49.900	0,691	-0,569	1,336	27,771	-11,719	31,494	27,828	-40,847	-46,604				34,02															
01:54:02.795	COM3_115200	2000-0-0 0:7:57.105	0,468	0,531	1,304	-7,263	29,602	-37,292	-24,664	-47,505	122,025				36,70															
01:54:02.817	COM3_115200	2000-0-0 0:7:57.125	0,439	0,540	1,312	-6,714	22,461	-32,104	-23,247	-47,016	120,613				36,76															
01:54:02.817	COM8_115200	2000-0-0 0:5:49.920	0,709	-0,561	1,286	22,888	-5,493	29,968	27,285	-41,067	-45,829				34,08															
01:54:02.864	COM8_115200	2000-0-0 0:5:49.940	0,714	-0,547	1,225	14,221	-8,606	23,132	26,642	-41,221	-45,126				34,11															
01:54:02.880	COM8_115200	2000-0-0 0:5:49.960	0,705	-0,577	1,278	7,263	-8,179	14,954	25,988	-41,375	-44,648				34,11															
01:54:02.880	COM8_115200	2000-0-0 0:5:49.980	0,581	-0,583	1,378	5,310	2,502	9,155	25,329	-41,320	-44,264				34,33															
01:54:02.880	COM3_115200	2000-0-0 0:7:57.145	0,396	0,563	1,281	-6,592	11,841	-26,306	-22,050	-46,637	119,487				36,82															
01:54:02.880	COM3_115200	2000-0-0 0:7:57.165	0,341	0,614	1,299	-7,141	2,441	-21,912	-21,055	-46,379	118,647				36,70															
01:54:02.880	COM3_115200	2000-0-0 0:7:57.185	0,344	0,610	1,313	-6,470	-8,667	-20,874	-20,187	-46,280	117,971				36,79															
01:54:02.880	COM8_115200	2000-0-0 0:5:50.000	0,554	-0,592	1,434	5,310	2,319	6,836	24,670	-41,138	-43,901				34,11															
01:54:02.896	COM8_115200	2000-0-0 0:5:50.020	0,483	-0,628	1,453	4,944	5,554	3,845	24,049	-40,924	-43,599				34,02															
01:54:02.912	COM3_115200	2000-0-0 0:7:57.205	0,392	0,609	1,296	-6,531	-18,494	-22,522	-19,374	-46,390	117,361				36,79															
01:54:02.917	COM3_115200	2000-0-0 0:7:57.225	0,405	0,593	1,279	-8,240	-12,268	-18,738	-18,600	-46,456	116,790				36,70															
01:54:02.917	COM8_115200	2000-0-0 0:5:50.040	0,500	-0,607	1,454	4,517	7,263	5,066	23,401	-40,638	-43,264				34,17															
01:54:02.933	COM3_115200	2000-0-0 0:7:57.245	0,375	0,604	1,250	-7,141	-2,747	-16,113	-17,847	-46,346	116,219				36,64															
01:54:02.966	COM3_115200	2000-0-0 0:7:57.265	0,447	0,625	1,269	-6,042	-8,118	-16,357	-17,106	-46,203	115,675				36,67															
01:54:02.966	COM8_115200	2000-0-0 0:5:50.060	0,502	-0,614	1,458	5,188	6,653	5,127	22,764	-40,358	-42,924				34,14															
01:54:02.966	COM8_115200	2000-0-0 0:5:50.080	0,495	-0,605	1,439	4,822	6,287	5,615	22,137	-40,062	-42,583				33,99															
01:54:02.981	COM3_115200	2000-0-0 0:7:57.285	0,469	0,586	1,268	-4,883	-6,287	-15,930	-16,370	-46,110	115,175				36,79															
01:54:03.034	COM8_115200	2000-0-0 0:5:50.100	0,521	-0,634	1,420	1,770	4,517	8,118	21,467	-39,814	-42,231				34,11															
01:54:03.034	COM8_115200	2000-0-0 0:5:50.120	0,532	-0,598	1,408	-1,099	4,395	10,010	20,715	-39,584	-41,836				34,08															
01:54:03.034	COM8_115200	2000-0-0 0:5:50.140	0,561	-0,591	1,428	-3,479	2,808	10,254	19,907	-39,370	-41,435				34,17															
01:54:03.034	COM3_115200	2000-0-0 0:7:57.305	0,441	0,614	1,274	-4,089	-2,014	-11,108	-15,656	-45,917	114,719				36,79															
01:54:03.034	COM3_115200	2000-0-0 0:7:57.325	0,345	0,604	1,260	-3,052	6,531	-8,545	-14,952	-45,560	114,313				36,70															
01:54:03.034	COM3_115200	2000-0-0 0:7:57.345	0,386	0,613	1,302	-2,136	4,089	-6,470	-14,288	-45,148	113,972				36,79															
01:54:03.050	COM8_115200	2000-0-0 0:5:50.160	0,572	-0,595	1,459	-4,211	-0,305	12,634	19,089	-39,216	-41,023				34,17															
01:54:03.064	COM3_115200	2000-0-0 0:7:57.365	0,396	0,608	1,300	-2,197	2,747	-6,348	-13,629	-44,786	113,654				36,70															
01:54:03.072	COM8_115200	2000-0-0 0:5:50.180	0,599	-0,583	1,448	-4,395	0,977	14,404	18,243	-39,089	-40,562				34,08															
01:54:03.087	COM3_115200	2000-0-0 0:7:57.385	0,407	0,619	1,305	-2,380	1,587	-5,493	-13,002	-44,440	113,362				36,70															
01:54:03.091	COM8_115200	2000-0-0 0:5:50.200	0,568	-0,615	1,418	-4,395	6,714	13,977	17,380	-38,875	-40,078				34,14															
01:54:03.102	COM3_115200	2000-0-0 0:7:57.405	0,435	0,609	1,272	-2,747	3,357	-2,686	-12,458	-44,072	113,159				36,67															
01:54:03.106	COM8_115200	2000-0-0 0:5:50.220	0,570	-0,585	1,398	-4,150	6,775	10,132	16,551	-38,595	-39,622				34,27															
01:54:03.118	COM3_115200	2000-0-0 0:7:57.425	0,446	0,598	1,260	-2,869	0,061	-0,183	-11,981	-43,720	113,044				36,67															
01:54:03.135	COM8_115200	2000-0-0 0:5:50.240	0,545	-0,602	1,403	-4,395	5,920	6,775	15,804	-38,315	-39,293				34,21															
01:54:03.135	COM3_115200	2000-0-0 0:7:57.445	0,462	0,576	1,275	-2,563	-2,014	3,784	-11,580	-43,412	113,033				36,64															
01:54:03.151	COM8_115200	2000-0-0 0:5:50.260	0,540	-0,617	1,413	-5,249	2,136	5,249	15,101	-38,073	-39,045				34,14															
01:54:03.151	COM3_115200	2000-0-0 0:7:57.465	0,402	0,595	1,282	-2,930	-0,366	4,883	-11,228	-43,099	113,082				36,73															
01:54:03.167	COM8_115200	2000-0-0 0:5:50.280	0,529	-0,627	1,435	-5,310	2,075	5,981	14,409	-37,859	-38,815				34,14															
01:54:03.167	COM3_115200	2000-0-0 0:7:57.485	0,397	0,607	1,271	-3,052	0,916	5,493	-10,893	-42,759	113,154				36,76															
01:54:03.183	COM8_115200	2000-0-0 0:5:50.300	0,540	-0,633	1,440	-6,470	0,793	5,066	13,716	-37,656	-38,595				34,08															
01:54:03.199	COM3_115200	2000-0-0 0:7:57.505	0,389	0,606	1,280	-1,953	0,549	4,883	-10,552	-42,424	113,225				36,79															
01:54:03.218	COM8_115200	2000-0-0 0:5:50.320	0,533	-0,625	1,442	-7,202	4,272	4,822	13,019	-37,408	-38,386				34,24															
01:54:03.218	COM3_115200	2000-0-0 0:7:57.525	0,407	0,601	1,304	-1,038	1,160	5,432	-10,195	-42,067	113,291				36,76															
01:54:03.250	COM3_115200	2000-0-0 0:7:57.545	0,402	0,574	1,314	0,000	2,075	7,019	-9,855	-41,721	113,417				36,67															
01:54:03.250	COM8_115200	2000-0-0 0:5:50.340	0,531	-0,609	1,427	-8,850	4,089	5,554	12,294	-37,134	-38,167				34,21															
01:54:03.250	COM3_115200	2000-0-0 0:7:57.565	0,411	0,584	1,324	0,977	-0,549	8,179	-9,492	-41,353	113,500				36,70															
01:54:03.267	COM8_115200	2000-0-0 0:5:50.360	0,523	-0,601	1,440	-9,644	2,747	6,348	11,552	-36,892	-37,930				34,14															
01:54:03.267	COM8_115200	2000-0-0 0:5:50.380	0,530	-0,596	1,449	-9,399	4,395	6,531	10,811	-36,645	-37,694				34,14															
01:54:03.267	COM3_115200	2000-0-0 0:7:57.585	0,419	0,575	1,320	0,305	1,038	4,395	-9,119	-41,028	113,560				36,73															
01:54:03.283	COM8_115200	2000-0-0 0:5:50.400	0,535	-0,609	1,443	-8,972	4,272	5,554	10,102	-36,376	-37,480				34,08															
01:54:03.299	COM3_115200	2000-0-0 0:7:57.605	0,433	0,571	1,300	0,793	2,869	2,625	-8,734	-40,677	113,610				36,67															
01:54:03.318	COM8_115200	2000-0-0 0:5:50.420	0,531	-0,603	1,413	-8,484	5,371	3,784	9,432	-36,085	-37,299				34,08															
01:54:03.318	COM3_115200	2000-0-0 0:7:57.625	0,437	0,566	1,297	1,221	1,831	3,845	-8,350	-40,342	113,676				36,67															
01:54:03.318	COM8_115200	2000-0-0 0:5:50.440	0,534	-0,602	1,418	-8,179	3,845	2,869	8,795	-35,804	-37,156				34,08															
01:54:03.335	COM3_115200	2000-0-0 0:7:57.645	0,424	0,569	1,299	1,282	3,357	4,639	-7,976	-39,979	113,747				36,70															
01:54:03.351	COM3_115200	2000-0-0 0:7:57.665	0,436	0,576	1,304	1,221	0,549	2,808	-7,581	-39,650	113,780				36,73															
01:54:03.351	COM8_115200	2000-0-0 0:5:50.460	0,535	-0,605	1,426	-7,813	3,540	2,075	8,185	-35,541	-37,035				34,17															
01:54:03.368	COM3_115200	2000-0-0 0:7:57.685	0,435	0,593	1,292	1,343	0,061	-0,366	-7,158	-39,375	113,763				36,60															
01:54:03.384	COM8_115200	2000-0-0 0:5:50.480	0,551	-0,612	1,418	-7,141	2,014	2,869	7,592	-35,294	-36,914				34,24															
01:54:03.384	COM8_115200	2000-0-0 0:5:50.500	0,517	-0,607	1,414	-7,141	2,197	1,831	7,020	-35,079	-36,815				34,27															
01:54:03.418	COM8_115200	2000-0-0 0:5:50.520	0,509	-0,600	1,418	-6,897	1,770	0,305	6,487	-34,849	-36,749				34,17															
01:54:03.418	COM3_115200	2000-0-0 0:7:57.705	0,408	0,570	1,290	2,808	1,953	-0,671	-6,702	-39,084	113,719				36,79															
01:54:03.418	COM3_115200	2000-0-0 0:7:57.725	0,412	0,578	1,303	3,601	1,892	0,366	-6,240	-38,765	113,703				36,64															
01:54:03.418	COM8_115200	2000-0-0 0:5:50.540	0,520	-0,604	1,433	-5,737	-0,427	2,014	5,971	-34,656	-36,689				34,05															
01:54:03.435	COM3_115200	2000-0-0 0:7:57.745	0,406	0,594	1,305	3,784	2,808	0,916	-5,784	-38,452	113,698				36,70															
01:54:03.452	COM8_115200	2000-0-0 0:5:50.560	0,523	-0,622	1,421	-4,761	1,099	1,343	5,482	-34,464	-36,628				34,11															
01:54:03.452	COM3_115200	2000-0-0 0:7:57.765	0,424	0,596	1,306	3,296	3,967	-0,977	-5,317	-38,112	113,665				36,79															
01:54:03.468	COM8_115200	2000-0-0 0:5:50.580	0,562	-0,601	1,400	-4,944	2,930	0,366	5,010	-34,239	-36,573				34,14															
01:54:03.485	COM3_115200	2000-0-0 0:7:57.785	0,455	0,589	1,300	3,845	1,709	-0,305	-4,861	-37,798	113,637				36,73															
01:54:03.488	COM8_115200	2000-0-0 0:5:50.600	0,556	-0,607	1,382	-6,104	3,113	-1,526	4,559	-33,992	-36,568				34,11															
01:54:03.505	COM3_115200	2000-0-0 0:7:57.805	0,428	0,591	1,290	5,127	-0,122	1,465	-4,406	-37,524	113,637				36,70															
01:54:03.505	COM8_115200	2000-0-0 0:5:50.620	0,567	-0,598	1,381	-7,019	3,479	-3,418	4,103	-33,739	-36,601				34,14															
01:54:03.519	COM3_115200	2000-0-0 0:7:57.825	0,431	0,587	1,279	6,775	0,000	4,089	-3,961	-37,266	113,703				36,70															
01:54:03.519	COM8_115200	2000-0-0 0:5:50.640	0,561	-0,612	1,389	-7,385	1,404	-4,456	3,669	-33,525	-36,683				34,17															
01:54:03.535	COM3_115200	2000-0-0 0:7:57.845	0,449	0,603	1,282	7,690	-1,648	5,249	-3,521	-37,029	113,807				36,76															
01:54:03.552	COM8_115200	2000-0-0 0:5:50.660	0,554	-0,602	1,397	-8,179	2,869	-6,348	3,246	-33,305	-36,799				34,08															
